workerid,proliferate.condition,accuracy,accuracy_bool,accuracy_finish_line,choices,condition,correct,correct_response,crosses,end_posision,end_position,internal_node_id,question_order,response,rt,selected_position,stimulus,surprise_setup,time_elapsed,trial,trial_index,trial_type,error
1111,1_cube_black,,1,,,1,True,Yes,True,,2,0.0-5.0-0.0,,Yes,3240,,stimuli/lb_hb_c_first.jpg,,49928,prediction_trial,7,image-button-response,
1111,1_cube_black,,0,,,1,False,No,False,,1,0.0-6.0-0.0,,Yes,2646,,stimuli/hr_ly_c_first.jpg,,62323,prediction_trial,10,image-button-response,
1111,1_cube_black,,1,,,1,True,Yes,True,,2,0.0-7.0-0.0,,Yes,2381,,stimuli/lb_hb_c_first.jpg,,73926,prediction_trial,13,image-button-response,
1111,1_cube_black,,0,,,1,False,No,False,,0,0.0-8.0-0.0,,Yes,2553,,stimuli/hr_hb_c_first.jpg,,86134,prediction_trial,16,image-button-response,
1111,1_cube_black,,0,,,1,False,Yes,True,,3,0.0-9.0-0.0,,No,2593,,stimuli/lb_ly_c_first.jpg,,102218,prediction_trial,19,image-button-response,
1111,1_cube_black,,1,,,1,True,No,False,,0,0.0-10.0-0.0,,No,1897,,stimuli/hr_hb_c_first.jpg,,113825,prediction_trial,22,image-button-response,
1111,1_cube_black,,1,,,1,True,Yes,True,,2,0.0-11.0-0.0,,Yes,1806,,stimuli/lb_hb_c_first.jpg,,123382,prediction_trial,25,image-button-response,
1111,1_cube_black,,1,,,1,True,No,False,,1,0.0-12.0-0.0,,No,2973,,stimuli/hr_ly_c_first.jpg,,135804,prediction_trial,28,image-button-response,
1111,1_cube_black,,1,,,1,True,Yes,True,,3,0.0-13.0-0.0,,Yes,2260,,stimuli/lb_ly_c_first.jpg,,147008,prediction_trial,31,image-button-response,
1111,1_cube_black,,1,,,1,True,No,False,,1,0.0-14.0-0.0,,No,1519,,stimuli/hr_ly_c_first.jpg,,157740,prediction_trial,34,image-button-response,
1111,1_cube_black,,1,,,1,True,Yes,True,,2,0.0-15.0-0.0,,Yes,1676,,stimuli/lb_hb_c_first.jpg,,167703,prediction_trial,37,image-button-response,
1111,1_cube_black,,1,,,1,True,Yes,True,,3,0.0-16.0-0.0,,Yes,2329,,stimuli/lb_ly_c_first.jpg,,179053,prediction_trial,40,image-button-response,
1111,1_cube_black,,1,,,1,True,No,False,,0,0.0-17.0-0.0,,No,1610,,stimuli/hr_hb_c_first.jpg,,190167,prediction_trial,43,image-button-response,
1111,1_cube_black,,1,,,1,True,Yes,True,,3,0.0-18.0-0.0,,Yes,1018,,stimuli/lb_ly_c_first.jpg,,199404,prediction_trial,46,image-button-response,
1111,1_cube_black,,1,,,1,True,No,False,,0,0.0-19.0-0.0,,No,2398,,stimuli/hr_hb_c_first.jpg,,211134,prediction_trial,49,image-button-response,
1111,1_cube_black,,1,,,1,True,No,False,,1,0.0-20.0-0.0,,No,1683,,stimuli/hr_ly_c_first.jpg,,220545,prediction_trial,52,image-button-response,
1111,1_cube_black,False,,True,"['<br><img src=stimuli/r_b_0.jpg style=width:256px></img', '<br><img src=stimuli/r_b_1.jpg style=width:256px></img', '<br><img src=stimuli/r_b_2.jpg style=width:256px></img', '<br><img src=stimuli/r_b_3.jpg style=width:256px></img']",1,,,,0,,0.0-22.0,[0],<br><img src=stimuli/r_b_1.jpg style=width:256px></img,11125,1,,hr_hb_c,243605,surprise_quiz,56,survey-multi-choice,
1111,1_cube_black,True,,True,"['<br><img src=stimuli/r_y_0.jpg style=width:256px></img', '<br><img src=stimuli/r_y_1.jpg style=width:256px></img', '<br><img src=stimuli/r_y_2.jpg style=width:256px></img', '<br><img src=stimuli/r_y_3.jpg style=width:256px></img']",1,,,,1,,0.0-23.0,[0],<br><img src=stimuli/r_y_1.jpg style=width:256px></img,5176,1,,hr_ly_c,248783,surprise_quiz,57,survey-multi-choice,
1111,1_cube_black,False,,True,"['<br><img src=stimuli/b_y_0.jpg style=width:256px></img', '<br><img src=stimuli/b_y_1.jpg style=width:256px></img', '<br><img src=stimuli/b_y_2.jpg style=width:256px></img', '<br><img src=stimuli/b_y_3.jpg style=width:256px></img']",1,,,,3,,0.0-24.0,[0],<br><img src=stimuli/b_y_2.jpg style=width:256px></img,5104,2,,lb_ly_c,253889,surprise_quiz,58,survey-multi-choice,
1111,1_cube_black,True,,True,"['<br><img src=stimuli/b_b_0.jpg style=width:256px></img', '<br><img src=stimuli/b_b_1.jpg style=width:256px></img', '<br><img src=stimuli/b_b_2.jpg style=width:256px></img', '<br><img src=stimuli/b_b_3.jpg style=width:256px></img']",1,,,,2,,0.0-25.0,[0],<br><img src=stimuli/b_b_2.jpg style=width:256px></img,5499,2,,lb_hb_c,259389,surprise_quiz,59,survey-multi-choice,
1185,1_cube_black,,0,,,1,False,No,False,,1,0.0-5.0-0.0,,Yes,5795,,stimuli/hr_ly_c_first.jpg,,66365,prediction_trial,7,image-button-response,
1185,1_cube_black,,1,,,1,True,Yes,True,,3,0.0-6.0-0.0,,Yes,2288,,stimuli/lb_ly_c_first.jpg,,93627,prediction_trial,10,image-button-response,
1185,1_cube_black,,1,,,1,True,No,False,,1,0.0-7.0-0.0,,No,3014,,stimuli/hr_ly_c_first.jpg,,109330,prediction_trial,13,image-button-response,
1185,1_cube_black,,1,,,1,True,Yes,True,,2,0.0-8.0-0.0,,Yes,4486,,stimuli/lb_hb_c_first.jpg,,122211,prediction_trial,16,image-button-response,
1185,1_cube_black,,0,,,1,False,No,False,,0,0.0-9.0-0.0,,Yes,4276,,stimuli/hr_hb_c_first.jpg,,139197,prediction_trial,19,image-button-response,
1185,1_cube_black,,1,,,1,True,Yes,True,,2,0.0-10.0-0.0,,Yes,966,,stimuli/lb_hb_c_first.jpg,,148127,prediction_trial,22,image-button-response,
1185,1_cube_black,,1,,,1,True,No,False,,1,0.0-11.0-0.0,,No,1596,,stimuli/hr_ly_c_first.jpg,,158801,prediction_trial,25,image-button-response,
1185,1_cube_black,,1,,,1,True,No,False,,0,0.0-12.0-0.0,,No,1664,,stimuli/hr_hb_c_first.jpg,,168679,prediction_trial,28,image-button-response,
1185,1_cube_black,,1,,,1,True,Yes,True,,3,0.0-13.0-0.0,,Yes,1782,,stimuli/lb_ly_c_first.jpg,,177989,prediction_trial,31,image-button-response,
1185,1_cube_black,,1,,,1,True,Yes,True,,2,0.0-14.0-0.0,,Yes,1728,,stimuli/lb_hb_c_first.jpg,,188889,prediction_trial,34,image-button-response,
1185,1_cube_black,,1,,,1,True,No,False,,1,0.0-15.0-0.0,,No,1774,,stimuli/hr_ly_c_first.jpg,,199617,prediction_trial,37,image-button-response,
1185,1_cube_black,,1,,,1,True,No,False,,0,0.0-16.0-0.0,,No,1361,,stimuli/hr_hb_c_first.jpg,,209443,prediction_trial,40,image-button-response,
1185,1_cube_black,,1,,,1,True,Yes,True,,3,0.0-17.0-0.0,,Yes,1306,,stimuli/lb_ly_c_first.jpg,,218371,prediction_trial,43,image-button-response,
1185,1_cube_black,,1,,,1,True,No,False,,0,0.0-18.0-0.0,,No,2148,,stimuli/hr_hb_c_first.jpg,,229745,prediction_trial,46,image-button-response,
1185,1_cube_black,,1,,,1,True,Yes,True,,2,0.0-19.0-0.0,,Yes,1508,,stimuli/lb_hb_c_first.jpg,,239725,prediction_trial,49,image-button-response,
1185,1_cube_black,,1,,,1,True,Yes,True,,3,0.0-20.0-0.0,,Yes,1582,,stimuli/lb_ly_c_first.jpg,,250446,prediction_trial,52,image-button-response,
1185,1_cube_black,True,,True,"['<br><img src=stimuli/r_y_0.jpg style=width:204.8px></img', '<br><img src=stimuli/r_y_1.jpg style=width:204.8px></img', '<br><img src=stimuli/r_y_2.jpg style=width:204.8px></img', '<br><img src=stimuli/r_y_3.jpg style=width:204.8px></img']",1,,,,1,,0.0-22.0,[0],<br><img src=stimuli/r_y_1.jpg style=width:204.8px></img,12238,1,,hr_ly_c,279186,surprise_quiz,56,survey-multi-choice,
1185,1_cube_black,True,,True,"['<br><img src=stimuli/r_b_0.jpg style=width:204.8px></img', '<br><img src=stimuli/r_b_1.jpg style=width:204.8px></img', '<br><img src=stimuli/r_b_2.jpg style=width:204.8px></img', '<br><img src=stimuli/r_b_3.jpg style=width:204.8px></img']",1,,,,0,,0.0-23.0,[0],<br><img src=stimuli/r_b_0.jpg style=width:204.8px></img,5721,0,,hr_hb_c,284911,surprise_quiz,57,survey-multi-choice,
1185,1_cube_black,True,,True,"['<br><img src=stimuli/b_b_0.jpg style=width:204.8px></img', '<br><img src=stimuli/b_b_1.jpg style=width:204.8px></img', '<br><img src=stimuli/b_b_2.jpg style=width:204.8px></img', '<br><img src=stimuli/b_b_3.jpg style=width:204.8px></img']",1,,,,2,,0.0-24.0,[0],<br><img src=stimuli/b_b_2.jpg style=width:204.8px></img,6110,2,,lb_hb_c,291025,surprise_quiz,58,survey-multi-choice,
1185,1_cube_black,True,,True,"['<br><img src=stimuli/b_y_0.jpg style=width:204.8px></img', '<br><img src=stimuli/b_y_1.jpg style=width:204.8px></img', '<br><img src=stimuli/b_y_2.jpg style=width:204.8px></img', '<br><img src=stimuli/b_y_3.jpg style=width:204.8px></img']",1,,,,3,,0.0-25.0,[0],<br><img src=stimuli/b_y_3.jpg style=width:204.8px></img,5113,3,,lb_ly_c,296143,surprise_quiz,59,survey-multi-choice,
1189,1_cube_black,,0,,,1,False,No,False,,0,0.0-5.0-0.0,,Yes,5549,,stimuli/hr_hb_c_first.jpg,,53616,prediction_trial,7,image-button-response,
1189,1_cube_black,,0,,,1,False,Yes,True,,2,0.0-6.0-0.0,,No,3441,,stimuli/lb_hb_c_first.jpg,,65524,prediction_trial,10,image-button-response,
1189,1_cube_black,,1,,,1,True,No,False,,1,0.0-7.0-0.0,,No,2623,,stimuli/hr_ly_c_first.jpg,,77571,prediction_trial,13,image-button-response,
1189,1_cube_black,,1,,,1,True,No,False,,0,0.0-8.0-0.0,,No,2808,,stimuli/hr_hb_c_first.jpg,,89618,prediction_trial,16,image-button-response,
1189,1_cube_black,,1,,,1,True,Yes,True,,3,0.0-9.0-0.0,,Yes,3154,,stimuli/lb_ly_c_first.jpg,,100700,prediction_trial,19,image-button-response,
1189,1_cube_black,,0,,,1,False,No,False,,1,0.0-10.0-0.0,,Yes,5108,,stimuli/hr_ly_c_first.jpg,,115367,prediction_trial,22,image-button-response,
1189,1_cube_black,,0,,,1,False,Yes,True,,2,0.0-11.0-0.0,,No,3016,,stimuli/lb_hb_c_first.jpg,,126767,prediction_trial,25,image-button-response,
1189,1_cube_black,,1,,,1,True,No,False,,0,0.0-12.0-0.0,,No,3521,,stimuli/hr_hb_c_first.jpg,,139321,prediction_trial,28,image-button-response,
1189,1_cube_black,,1,,,1,True,Yes,True,,3,0.0-13.0-0.0,,Yes,2026,,stimuli/lb_ly_c_first.jpg,,149040,prediction_trial,31,image-button-response,
1189,1_cube_black,,1,,,1,True,Yes,True,,2,0.0-14.0-0.0,,Yes,1947,,stimuli/lb_hb_c_first.jpg,,160329,prediction_trial,34,image-button-response,
1189,1_cube_black,,1,,,1,True,Yes,True,,3,0.0-15.0-0.0,,Yes,1673,,stimuli/lb_ly_c_first.jpg,,171498,prediction_trial,37,image-button-response,
1189,1_cube_black,,1,,,1,True,No,False,,1,0.0-16.0-0.0,,No,1840,,stimuli/hr_ly_c_first.jpg,,182683,prediction_trial,40,image-button-response,
1189,1_cube_black,,1,,,1,True,Yes,True,,2,0.0-17.0-0.0,,Yes,2458,,stimuli/lb_hb_c_first.jpg,,193650,prediction_trial,43,image-button-response,
1189,1_cube_black,,0,,,1,False,No,False,,0,0.0-18.0-0.0,,Yes,1753,,stimuli/hr_hb_c_first.jpg,,204702,prediction_trial,46,image-button-response,
1189,1_cube_black,,1,,,1,True,Yes,True,,3,0.0-19.0-0.0,,Yes,1214,,stimuli/lb_ly_c_first.jpg,,213464,prediction_trial,49,image-button-response,
1189,1_cube_black,,0,,,1,False,No,False,,1,0.0-20.0-0.0,,Yes,1159,,stimuli/hr_ly_c_first.jpg,,224182,prediction_trial,52,image-button-response,
1189,1_cube_black,True,,True,"['<br><img src=stimuli/b_y_0.jpg style=width:288px></img', '<br><img src=stimuli/b_y_1.jpg style=width:288px></img', '<br><img src=stimuli/b_y_2.jpg style=width:288px></img', '<br><img src=stimuli/b_y_3.jpg style=width:288px></img']",1,,,,3,,0.0-22.0,[0],<br><img src=stimuli/b_y_3.jpg style=width:288px></img,7244,3,,lb_ly_c,242677,surprise_quiz,56,survey-multi-choice,
1189,1_cube_black,True,,True,"['<br><img src=stimuli/b_b_0.jpg style=width:288px></img', '<br><img src=stimuli/b_b_1.jpg style=width:288px></img', '<br><img src=stimuli/b_b_2.jpg style=width:288px></img', '<br><img src=stimuli/b_b_3.jpg style=width:288px></img']",1,,,,2,,0.0-23.0,[0],<br><img src=stimuli/b_b_2.jpg style=width:288px></img,4676,2,,lb_hb_c,247356,surprise_quiz,57,survey-multi-choice,
1189,1_cube_black,True,,True,"['<br><img src=stimuli/r_b_0.jpg style=width:288px></img', '<br><img src=stimuli/r_b_1.jpg style=width:288px></img', '<br><img src=stimuli/r_b_2.jpg style=width:288px></img', '<br><img src=stimuli/r_b_3.jpg style=width:288px></img']",1,,,,0,,0.0-24.0,[0],<br><img src=stimuli/r_b_0.jpg style=width:288px></img,3362,0,,hr_hb_c,250721,surprise_quiz,58,survey-multi-choice,
1189,1_cube_black,True,,True,"['<br><img src=stimuli/r_y_0.jpg style=width:288px></img', '<br><img src=stimuli/r_y_1.jpg style=width:288px></img', '<br><img src=stimuli/r_y_2.jpg style=width:288px></img', '<br><img src=stimuli/r_y_3.jpg style=width:288px></img']",1,,,,1,,0.0-25.0,[0],<br><img src=stimuli/r_y_1.jpg style=width:288px></img,4124,1,,hr_ly_c,254848,surprise_quiz,59,survey-multi-choice,
1115,1_cube_black,,1,,,1,True,Yes,True,,3,0.0-5.0-0.0,,Yes,4421,,stimuli/lb_ly_c_first.jpg,,658947,prediction_trial,11,image-button-response,
1115,1_cube_black,,1,,,1,True,Yes,True,,2,0.0-6.0-0.0,,Yes,5929,,stimuli/lb_hb_c_first.jpg,,675044,prediction_trial,14,image-button-response,
1115,1_cube_black,,1,,,1,True,No,False,,0,0.0-7.0-0.0,,No,2337,,stimuli/hr_hb_c_first.jpg,,686413,prediction_trial,17,image-button-response,
1115,1_cube_black,,1,,,1,True,Yes,True,,2,0.0-8.0-0.0,,Yes,2398,,stimuli/lb_hb_c_first.jpg,,696221,prediction_trial,20,image-button-response,
1115,1_cube_black,,1,,,1,True,No,False,,0,0.0-9.0-0.0,,No,4916,,stimuli/hr_hb_c_first.jpg,,710126,prediction_trial,23,image-button-response,
1115,1_cube_black,,1,,,1,True,Yes,True,,3,0.0-10.0-0.0,,Yes,1970,,stimuli/lb_ly_c_first.jpg,,719502,prediction_trial,26,image-button-response,
1115,1_cube_black,,1,,,1,True,No,False,,1,0.0-11.0-0.0,,No,1625,,stimuli/hr_ly_c_first.jpg,,730069,prediction_trial,29,image-button-response,
1115,1_cube_black,,1,,,1,True,No,False,,0,0.0-12.0-0.0,,No,1815,,stimuli/hr_hb_c_first.jpg,,739846,prediction_trial,32,image-button-response,
1115,1_cube_black,,1,,,1,True,Yes,True,,2,0.0-13.0-0.0,,Yes,1179,,stimuli/lb_hb_c_first.jpg,,748238,prediction_trial,35,image-button-response,
1115,1_cube_black,,1,,,1,True,No,False,,1,0.0-14.0-0.0,,No,1381,,stimuli/hr_ly_c_first.jpg,,758230,prediction_trial,38,image-button-response,
1115,1_cube_black,,1,,,1,True,Yes,True,,3,0.0-15.0-0.0,,Yes,1218,,stimuli/lb_ly_c_first.jpg,,767358,prediction_trial,41,image-button-response,
1115,1_cube_black,,1,,,1,True,No,False,,0,0.0-16.0-0.0,,No,1721,,stimuli/hr_hb_c_first.jpg,,777926,prediction_trial,44,image-button-response,
1115,1_cube_black,,1,,,1,True,Yes,True,,3,0.0-17.0-0.0,,Yes,1297,,stimuli/lb_ly_c_first.jpg,,786470,prediction_trial,47,image-button-response,
1115,1_cube_black,,1,,,1,True,No,False,,1,0.0-18.0-0.0,,No,1391,,stimuli/hr_ly_c_first.jpg,,798919,prediction_trial,50,image-button-response,
1115,1_cube_black,,1,,,1,True,Yes,True,,2,0.0-19.0-0.0,,Yes,1166,,stimuli/lb_hb_c_first.jpg,,808207,prediction_trial,53,image-button-response,
1115,1_cube_black,,1,,,1,True,No,False,,1,0.0-20.0-0.0,,No,1671,,stimuli/hr_ly_c_first.jpg,,819927,prediction_trial,56,image-button-response,
1115,1_cube_black,False,,True,"['<br><img src=stimuli/b_y_0.jpg style=width:512px></img', '<br><img src=stimuli/b_y_1.jpg style=width:512px></img', '<br><img src=stimuli/b_y_2.jpg style=width:512px></img', '<br><img src=stimuli/b_y_3.jpg style=width:512px></img']",1,,,,3,,0.0-22.0,[0],<br><img src=stimuli/b_y_2.jpg style=width:512px></img,8051,2,,lb_ly_c,837085,surprise_quiz,60,survey-multi-choice,
1115,1_cube_black,False,,True,"['<br><img src=stimuli/b_b_0.jpg style=width:512px></img', '<br><img src=stimuli/b_b_1.jpg style=width:512px></img', '<br><img src=stimuli/b_b_2.jpg style=width:512px></img', '<br><img src=stimuli/b_b_3.jpg style=width:512px></img']",1,,,,2,,0.0-23.0,[0],<br><img src=stimuli/b_b_3.jpg style=width:512px></img,4666,3,,lb_hb_c,841768,surprise_quiz,61,survey-multi-choice,
1115,1_cube_black,True,,True,"['<br><img src=stimuli/r_b_0.jpg style=width:512px></img', '<br><img src=stimuli/r_b_1.jpg style=width:512px></img', '<br><img src=stimuli/r_b_2.jpg style=width:512px></img', '<br><img src=stimuli/r_b_3.jpg style=width:512px></img']",1,,,,0,,0.0-24.0,[0],<br><img src=stimuli/r_b_0.jpg style=width:512px></img,9706,0,,hr_hb_c,851481,surprise_quiz,62,survey-multi-choice,
1115,1_cube_black,True,,True,"['<br><img src=stimuli/r_y_0.jpg style=width:512px></img', '<br><img src=stimuli/r_y_1.jpg style=width:512px></img', '<br><img src=stimuli/r_y_2.jpg style=width:512px></img', '<br><img src=stimuli/r_y_3.jpg style=width:512px></img']",1,,,,1,,0.0-25.0,[0],<br><img src=stimuli/r_y_1.jpg style=width:512px></img,4856,1,,hr_ly_c,856354,surprise_quiz,63,survey-multi-choice,
1127,1_cube_black,,1,,,1,True,No,False,,0,0.0-5.0-0.0,,No,2709,,stimuli/hr_hb_c_first.jpg,,45845,prediction_trial,7,image-button-response,
1127,1_cube_black,,1,,,1,True,Yes,True,,2,0.0-6.0-0.0,,Yes,4033,,stimuli/lb_hb_c_first.jpg,,58140,prediction_trial,10,image-button-response,
1127,1_cube_black,,1,,,1,True,No,False,,0,0.0-7.0-0.0,,No,1298,,stimuli/hr_hb_c_first.jpg,,68367,prediction_trial,13,image-button-response,
1127,1_cube_black,,1,,,1,True,Yes,True,,2,0.0-8.0-0.0,,Yes,1213,,stimuli/lb_hb_c_first.jpg,,77380,prediction_trial,16,image-button-response,
1127,1_cube_black,,1,,,1,True,No,False,,1,0.0-9.0-0.0,,No,1141,,stimuli/hr_ly_c_first.jpg,,88026,prediction_trial,19,image-button-response,
1127,1_cube_black,,1,,,1,True,Yes,True,,2,0.0-10.0-0.0,,Yes,1995,,stimuli/lb_hb_c_first.jpg,,98213,prediction_trial,22,image-button-response,
1127,1_cube_black,,1,,,1,True,Yes,True,,3,0.0-11.0-0.0,,Yes,2127,,stimuli/lb_ly_c_first.jpg,,109172,prediction_trial,25,image-button-response,
1127,1_cube_black,,1,,,1,True,No,False,,1,0.0-12.0-0.0,,No,1230,,stimuli/hr_ly_c_first.jpg,,119441,prediction_trial,28,image-button-response,
1127,1_cube_black,,1,,,1,True,Yes,True,,3,0.0-13.0-0.0,,Yes,980,,stimuli/lb_ly_c_first.jpg,,129707,prediction_trial,31,image-button-response,
1127,1_cube_black,,1,,,1,True,No,False,,0,0.0-14.0-0.0,,No,1303,,stimuli/hr_hb_c_first.jpg,,139950,prediction_trial,34,image-button-response,
1127,1_cube_black,,1,,,1,True,No,False,,1,0.0-15.0-0.0,,No,1532,,stimuli/hr_ly_c_first.jpg,,148867,prediction_trial,37,image-button-response,
1127,1_cube_black,,1,,,1,True,Yes,True,,2,0.0-16.0-0.0,,Yes,703,,stimuli/lb_hb_c_first.jpg,,157462,prediction_trial,40,image-button-response,
1127,1_cube_black,,1,,,1,True,No,False,,1,0.0-17.0-0.0,,No,1117,,stimuli/hr_ly_c_first.jpg,,171138,prediction_trial,43,image-button-response,
1127,1_cube_black,,1,,,1,True,Yes,True,,3,0.0-18.0-0.0,,Yes,937,,stimuli/lb_ly_c_first.jpg,,180038,prediction_trial,46,image-button-response,
1127,1_cube_black,,1,,,1,True,No,False,,0,0.0-19.0-0.0,,No,914,,stimuli/hr_hb_c_first.jpg,,190652,prediction_trial,49,image-button-response,
1127,1_cube_black,,1,,,1,True,Yes,True,,3,0.0-20.0-0.0,,Yes,849,,stimuli/lb_ly_c_first.jpg,,201287,prediction_trial,52,image-button-response,
1127,1_cube_black,False,,True,"['<br><img src=stimuli/b_b_0.jpg style=width:320px></img', '<br><img src=stimuli/b_b_1.jpg style=width:320px></img', '<br><img src=stimuli/b_b_2.jpg style=width:320px></img', '<br><img src=stimuli/b_b_3.jpg style=width:320px></img']",1,,,,2,,0.0-22.0,[0],<br><img src=stimuli/b_b_3.jpg style=width:320px></img,15063,3,,lb_hb_c,227595,surprise_quiz,56,survey-multi-choice,
1127,1_cube_black,True,,True,"['<br><img src=stimuli/r_b_0.jpg style=width:320px></img', '<br><img src=stimuli/r_b_1.jpg style=width:320px></img', '<br><img src=stimuli/r_b_2.jpg style=width:320px></img', '<br><img src=stimuli/r_b_3.jpg style=width:320px></img']",1,,,,0,,0.0-23.0,[0],<br><img src=stimuli/r_b_0.jpg style=width:320px></img,7949,0,,hr_hb_c,235546,surprise_quiz,57,survey-multi-choice,
1127,1_cube_black,True,,True,"['<br><img src=stimuli/r_y_0.jpg style=width:320px></img', '<br><img src=stimuli/r_y_1.jpg style=width:320px></img', '<br><img src=stimuli/r_y_2.jpg style=width:320px></img', '<br><img src=stimuli/r_y_3.jpg style=width:320px></img']",1,,,,1,,0.0-24.0,[0],<br><img src=stimuli/r_y_1.jpg style=width:320px></img,3077,1,,hr_ly_c,238625,surprise_quiz,58,survey-multi-choice,
1127,1_cube_black,True,,True,"['<br><img src=stimuli/b_y_0.jpg style=width:320px></img', '<br><img src=stimuli/b_y_1.jpg style=width:320px></img', '<br><img src=stimuli/b_y_2.jpg style=width:320px></img', '<br><img src=stimuli/b_y_3.jpg style=width:320px></img']",1,,,,3,,0.0-25.0,[0],<br><img src=stimuli/b_y_3.jpg style=width:320px></img,6922,3,,lb_ly_c,245549,surprise_quiz,59,survey-multi-choice,
1149,1_cube_black,,0,,,1,False,No,False,,0,0.0-5.0-0.0,,Yes,1849,,stimuli/hr_hb_c_first.jpg,,31370,prediction_trial,7,image-button-response,
1149,1_cube_black,,1,,,1,True,Yes,True,,3,0.0-6.0-0.0,,Yes,587,,stimuli/lb_ly_c_first.jpg,,39291,prediction_trial,10,image-button-response,
1149,1_cube_black,,1,,,1,True,Yes,True,,2,0.0-7.0-0.0,,Yes,564,,stimuli/lb_hb_c_first.jpg,,49004,prediction_trial,13,image-button-response,
1149,1_cube_black,,1,,,1,True,No,False,,0,0.0-8.0-0.0,,No,519,,stimuli/hr_hb_c_first.jpg,,58406,prediction_trial,16,image-button-response,
1149,1_cube_black,,1,,,1,True,No,False,,1,0.0-9.0-0.0,,No,486,,stimuli/hr_ly_c_first.jpg,,69199,prediction_trial,19,image-button-response,
1149,1_cube_black,,1,,,1,True,Yes,True,,3,0.0-10.0-0.0,,Yes,743,,stimuli/lb_ly_c_first.jpg,,78026,prediction_trial,22,image-button-response,
1149,1_cube_black,,1,,,1,True,No,False,,1,0.0-11.0-0.0,,No,993,,stimuli/hr_ly_c_first.jpg,,88082,prediction_trial,25,image-button-response,
1149,1_cube_black,,0,,,1,False,No,False,,0,0.0-12.0-0.0,,Yes,1170,,stimuli/hr_hb_c_first.jpg,,99245,prediction_trial,28,image-button-response,
1149,1_cube_black,,0,,,1,False,No,False,,1,0.0-13.0-0.0,,Yes,1032,,stimuli/hr_ly_c_first.jpg,,110167,prediction_trial,31,image-button-response,
1149,1_cube_black,,1,,,1,True,Yes,True,,2,0.0-14.0-0.0,,Yes,792,,stimuli/lb_hb_c_first.jpg,,118979,prediction_trial,34,image-button-response,
1149,1_cube_black,,0,,,1,False,No,False,,0,0.0-15.0-0.0,,Yes,1007,,stimuli/hr_hb_c_first.jpg,,129178,prediction_trial,37,image-button-response,
1149,1_cube_black,,1,,,1,True,Yes,True,,3,0.0-16.0-0.0,,Yes,1329,,stimuli/lb_ly_c_first.jpg,,139510,prediction_trial,40,image-button-response,
1149,1_cube_black,,0,,,1,False,Yes,True,,2,0.0-17.0-0.0,,No,1075,,stimuli/lb_hb_c_first.jpg,,153551,prediction_trial,43,image-button-response,
1149,1_cube_black,,0,,,1,False,Yes,True,,3,0.0-18.0-0.0,,No,1294,,stimuli/lb_ly_c_first.jpg,,163715,prediction_trial,46,image-button-response,
1149,1_cube_black,,0,,,1,False,Yes,True,,2,0.0-19.0-0.0,,No,447,,stimuli/lb_hb_c_first.jpg,,173104,prediction_trial,49,image-button-response,
1149,1_cube_black,,1,,,1,True,No,False,,1,0.0-20.0-0.0,,No,1860,,stimuli/hr_ly_c_first.jpg,,189766,prediction_trial,52,image-button-response,
1149,1_cube_black,False,,False,"['<br><img src=stimuli/b_y_0.jpg style=width:307.2px></img', '<br><img src=stimuli/b_y_1.jpg style=width:307.2px></img', '<br><img src=stimuli/b_y_2.jpg style=width:307.2px></img', '<br><img src=stimuli/b_y_3.jpg style=width:307.2px></img']",1,,,,3,,0.0-22.0,[0],<br><img src=stimuli/b_y_1.jpg style=width:307.2px></img,6846,1,,lb_ly_c,209365,surprise_quiz,56,survey-multi-choice,
1149,1_cube_black,True,,True,"['<br><img src=stimuli/b_b_0.jpg style=width:307.2px></img', '<br><img src=stimuli/b_b_1.jpg style=width:307.2px></img', '<br><img src=stimuli/b_b_2.jpg style=width:307.2px></img', '<br><img src=stimuli/b_b_3.jpg style=width:307.2px></img']",1,,,,2,,0.0-23.0,[0],<br><img src=stimuli/b_b_2.jpg style=width:307.2px></img,3086,2,,lb_hb_c,212453,surprise_quiz,57,survey-multi-choice,
1149,1_cube_black,True,,True,"['<br><img src=stimuli/r_b_0.jpg style=width:307.2px></img', '<br><img src=stimuli/r_b_1.jpg style=width:307.2px></img', '<br><img src=stimuli/r_b_2.jpg style=width:307.2px></img', '<br><img src=stimuli/r_b_3.jpg style=width:307.2px></img']",1,,,,0,,0.0-24.0,[0],<br><img src=stimuli/r_b_0.jpg style=width:307.2px></img,3899,0,,hr_hb_c,216354,surprise_quiz,58,survey-multi-choice,
1149,1_cube_black,False,,False,"['<br><img src=stimuli/r_y_0.jpg style=width:307.2px></img', '<br><img src=stimuli/r_y_1.jpg style=width:307.2px></img', '<br><img src=stimuli/r_y_2.jpg style=width:307.2px></img', '<br><img src=stimuli/r_y_3.jpg style=width:307.2px></img']",1,,,,1,,0.0-25.0,[0],<br><img src=stimuli/r_y_3.jpg style=width:307.2px></img,11401,3,,hr_ly_c,227758,surprise_quiz,59,survey-multi-choice,
1202,1_cube_black,,0,,,1,False,No,False,,0,0.0-5.0-0.0,,Yes,3332,,stimuli/hr_hb_c_first.jpg,,81354,prediction_trial,7,image-button-response,
1202,1_cube_black,,0,,,1,False,Yes,True,,2,0.0-6.0-0.0,,No,3564,,stimuli/lb_hb_c_first.jpg,,97960,prediction_trial,10,image-button-response,
1202,1_cube_black,,1,,,1,True,Yes,True,,3,0.0-7.0-0.0,,Yes,2181,,stimuli/lb_ly_c_first.jpg,,109538,prediction_trial,13,image-button-response,
1202,1_cube_black,,1,,,1,True,Yes,True,,2,0.0-8.0-0.0,,Yes,3059,,stimuli/lb_hb_c_first.jpg,,124552,prediction_trial,16,image-button-response,
1202,1_cube_black,,1,,,1,True,Yes,True,,3,0.0-9.0-0.0,,Yes,1815,,stimuli/lb_ly_c_first.jpg,,136035,prediction_trial,19,image-button-response,
1202,1_cube_black,,1,,,1,True,No,False,,0,0.0-10.0-0.0,,No,1979,,stimuli/hr_hb_c_first.jpg,,147568,prediction_trial,22,image-button-response,
1202,1_cube_black,,1,,,1,True,No,False,,1,0.0-11.0-0.0,,No,2056,,stimuli/hr_ly_c_first.jpg,,157395,prediction_trial,25,image-button-response,
1202,1_cube_black,,1,,,1,True,Yes,True,,3,0.0-12.0-0.0,,Yes,1940,,stimuli/lb_ly_c_first.jpg,,167907,prediction_trial,28,image-button-response,
1202,1_cube_black,,1,,,1,True,Yes,True,,2,0.0-13.0-0.0,,Yes,1605,,stimuli/lb_hb_c_first.jpg,,179228,prediction_trial,31,image-button-response,
1202,1_cube_black,,1,,,1,True,No,False,,0,0.0-14.0-0.0,,No,1585,,stimuli/hr_hb_c_first.jpg,,190315,prediction_trial,34,image-button-response,
1202,1_cube_black,,1,,,1,True,No,False,,1,0.0-15.0-0.0,,No,1649,,stimuli/hr_ly_c_first.jpg,,199779,prediction_trial,37,image-button-response,
1202,1_cube_black,,1,,,1,True,No,False,,0,0.0-16.0-0.0,,No,1592,,stimuli/hr_hb_c_first.jpg,,209868,prediction_trial,40,image-button-response,
1202,1_cube_black,,1,,,1,True,No,False,,1,0.0-17.0-0.0,,No,1813,,stimuli/hr_ly_c_first.jpg,,219419,prediction_trial,43,image-button-response,
1202,1_cube_black,,1,,,1,True,Yes,True,,2,0.0-18.0-0.0,,Yes,1421,,stimuli/lb_hb_c_first.jpg,,229996,prediction_trial,46,image-button-response,
1202,1_cube_black,,1,,,1,True,No,False,,1,0.0-19.0-0.0,,No,1562,,stimuli/hr_ly_c_first.jpg,,240709,prediction_trial,49,image-button-response,
1202,1_cube_black,,1,,,1,True,Yes,True,,3,0.0-20.0-0.0,,Yes,1444,,stimuli/lb_ly_c_first.jpg,,250799,prediction_trial,52,image-button-response,
1202,1_cube_black,True,,True,"['<br><img src=stimuli/r_b_0.jpg style=width:274.2px></img', '<br><img src=stimuli/r_b_1.jpg style=width:274.2px></img', '<br><img src=stimuli/r_b_2.jpg style=width:274.2px></img', '<br><img src=stimuli/r_b_3.jpg style=width:274.2px></img']",1,,,,0,,0.0-22.0,[0],<br><img src=stimuli/r_b_0.jpg style=width:274.2px></img,12233,0,,hr_hb_c,275772,surprise_quiz,56,survey-multi-choice,
1202,1_cube_black,True,,True,"['<br><img src=stimuli/b_b_0.jpg style=width:274.2px></img', '<br><img src=stimuli/b_b_1.jpg style=width:274.2px></img', '<br><img src=stimuli/b_b_2.jpg style=width:274.2px></img', '<br><img src=stimuli/b_b_3.jpg style=width:274.2px></img']",1,,,,2,,0.0-23.0,[0],<br><img src=stimuli/b_b_2.jpg style=width:274.2px></img,6663,2,,lb_hb_c,282443,surprise_quiz,57,survey-multi-choice,
1202,1_cube_black,True,,True,"['<br><img src=stimuli/b_y_0.jpg style=width:274.2px></img', '<br><img src=stimuli/b_y_1.jpg style=width:274.2px></img', '<br><img src=stimuli/b_y_2.jpg style=width:274.2px></img', '<br><img src=stimuli/b_y_3.jpg style=width:274.2px></img']",1,,,,3,,0.0-24.0,[0],<br><img src=stimuli/b_y_3.jpg style=width:274.2px></img,15652,3,,lb_ly_c,298102,surprise_quiz,58,survey-multi-choice,
1202,1_cube_black,False,,True,"['<br><img src=stimuli/r_y_0.jpg style=width:274.2px></img', '<br><img src=stimuli/r_y_1.jpg style=width:274.2px></img', '<br><img src=stimuli/r_y_2.jpg style=width:274.2px></img', '<br><img src=stimuli/r_y_3.jpg style=width:274.2px></img']",1,,,,1,,0.0-25.0,[0],<br><img src=stimuli/r_y_0.jpg style=width:274.2px></img,9783,0,,hr_ly_c,307891,surprise_quiz,59,survey-multi-choice,
1197,1_cube_black,,1,,,1,True,No,False,,0,0.0-5.0-0.0,,No,2961,,stimuli/hr_hb_c_first.jpg,,43514,prediction_trial,7,image-button-response,
1197,1_cube_black,,1,,,1,True,Yes,True,,2,0.0-6.0-0.0,,Yes,1281,,stimuli/lb_hb_c_first.jpg,,52848,prediction_trial,10,image-button-response,
1197,1_cube_black,,1,,,1,True,No,False,,1,0.0-7.0-0.0,,No,1747,,stimuli/hr_ly_c_first.jpg,,65983,prediction_trial,13,image-button-response,
1197,1_cube_black,,1,,,1,True,No,False,,0,0.0-8.0-0.0,,No,4974,,stimuli/hr_hb_c_first.jpg,,79391,prediction_trial,16,image-button-response,
1197,1_cube_black,,1,,,1,True,Yes,True,,2,0.0-9.0-0.0,,Yes,1614,,stimuli/lb_hb_c_first.jpg,,88548,prediction_trial,19,image-button-response,
1197,1_cube_black,,1,,,1,True,No,False,,1,0.0-10.0-0.0,,No,2044,,stimuli/hr_ly_c_first.jpg,,99395,prediction_trial,22,image-button-response,
1197,1_cube_black,,1,,,1,True,Yes,True,,3,0.0-11.0-0.0,,Yes,1299,,stimuli/lb_ly_c_first.jpg,,108729,prediction_trial,25,image-button-response,
1197,1_cube_black,,1,,,1,True,Yes,True,,2,0.0-12.0-0.0,,Yes,1237,,stimuli/lb_hb_c_first.jpg,,118853,prediction_trial,28,image-button-response,
1197,1_cube_black,,1,,,1,True,No,False,,0,0.0-13.0-0.0,,No,1278,,stimuli/hr_hb_c_first.jpg,,129251,prediction_trial,31,image-button-response,
1197,1_cube_black,,1,,,1,True,Yes,True,,3,0.0-14.0-0.0,,Yes,1514,,stimuli/lb_ly_c_first.jpg,,137938,prediction_trial,34,image-button-response,
1197,1_cube_black,,1,,,1,True,No,False,,1,0.0-15.0-0.0,,No,1052,,stimuli/hr_ly_c_first.jpg,,147722,prediction_trial,37,image-button-response,
1197,1_cube_black,,1,,,1,True,Yes,True,,2,0.0-16.0-0.0,,Yes,1127,,stimuli/lb_hb_c_first.jpg,,156629,prediction_trial,40,image-button-response,
1197,1_cube_black,,1,,,1,True,Yes,True,,3,0.0-17.0-0.0,,Yes,838,,stimuli/lb_ly_c_first.jpg,,166051,prediction_trial,43,image-button-response,
1197,1_cube_black,,1,,,1,True,No,False,,1,0.0-18.0-0.0,,No,2490,,stimuli/hr_ly_c_first.jpg,,177249,prediction_trial,46,image-button-response,
1197,1_cube_black,,1,,,1,True,No,False,,0,0.0-19.0-0.0,,No,1144,,stimuli/hr_hb_c_first.jpg,,186201,prediction_trial,49,image-button-response,
1197,1_cube_black,,1,,,1,True,Yes,True,,3,0.0-20.0-0.0,,Yes,888,,stimuli/lb_ly_c_first.jpg,,194083,prediction_trial,52,image-button-response,
1197,1_cube_black,True,,True,"['<br><img src=stimuli/r_b_0.jpg style=width:384px></img', '<br><img src=stimuli/r_b_1.jpg style=width:384px></img', '<br><img src=stimuli/r_b_2.jpg style=width:384px></img', '<br><img src=stimuli/r_b_3.jpg style=width:384px></img']",1,,,,0,,0.0-22.0,[0],<br><img src=stimuli/r_b_0.jpg style=width:384px></img,8407,0,,hr_hb_c,216693,surprise_quiz,56,survey-multi-choice,
1197,1_cube_black,True,,True,"['<br><img src=stimuli/b_b_0.jpg style=width:384px></img', '<br><img src=stimuli/b_b_1.jpg style=width:384px></img', '<br><img src=stimuli/b_b_2.jpg style=width:384px></img', '<br><img src=stimuli/b_b_3.jpg style=width:384px></img']",1,,,,2,,0.0-23.0,[0],<br><img src=stimuli/b_b_2.jpg style=width:384px></img,5437,2,,lb_hb_c,222132,surprise_quiz,57,survey-multi-choice,
1197,1_cube_black,True,,True,"['<br><img src=stimuli/b_y_0.jpg style=width:384px></img', '<br><img src=stimuli/b_y_1.jpg style=width:384px></img', '<br><img src=stimuli/b_y_2.jpg style=width:384px></img', '<br><img src=stimuli/b_y_3.jpg style=width:384px></img']",1,,,,3,,0.0-24.0,[0],<br><img src=stimuli/b_y_3.jpg style=width:384px></img,3345,3,,lb_ly_c,225480,surprise_quiz,58,survey-multi-choice,
1197,1_cube_black,True,,True,"['<br><img src=stimuli/r_y_0.jpg style=width:384px></img', '<br><img src=stimuli/r_y_1.jpg style=width:384px></img', '<br><img src=stimuli/r_y_2.jpg style=width:384px></img', '<br><img src=stimuli/r_y_3.jpg style=width:384px></img']",1,,,,1,,0.0-25.0,[0],<br><img src=stimuli/r_y_1.jpg style=width:384px></img,3050,1,,hr_ly_c,228531,surprise_quiz,59,survey-multi-choice,
1145,1_cube_black,,0,,,1,False,No,False,,0,0.0-5.0-0.0,,Yes,4083,,stimuli/hr_hb_c_first.jpg,,65614,prediction_trial,7,image-button-response,
1145,1_cube_black,,0,,,1,False,No,False,,1,0.0-6.0-0.0,,Yes,3131,,stimuli/hr_ly_c_first.jpg,,76613,prediction_trial,10,image-button-response,
1145,1_cube_black,,1,,,1,True,Yes,True,,3,0.0-7.0-0.0,,Yes,1762,,stimuli/lb_ly_c_first.jpg,,87418,prediction_trial,13,image-button-response,
1145,1_cube_black,,1,,,1,True,Yes,True,,2,0.0-8.0-0.0,,Yes,1777,,stimuli/lb_hb_c_first.jpg,,98883,prediction_trial,16,image-button-response,
1145,1_cube_black,,1,,,1,True,No,False,,0,0.0-9.0-0.0,,No,1369,,stimuli/hr_hb_c_first.jpg,,109397,prediction_trial,19,image-button-response,
1145,1_cube_black,,1,,,1,True,Yes,True,,2,0.0-10.0-0.0,,Yes,1218,,stimuli/lb_hb_c_first.jpg,,118121,prediction_trial,22,image-button-response,
1145,1_cube_black,,1,,,1,True,No,False,,1,0.0-11.0-0.0,,No,1266,,stimuli/hr_ly_c_first.jpg,,128355,prediction_trial,25,image-button-response,
1145,1_cube_black,,1,,,1,True,Yes,True,,3,0.0-12.0-0.0,,Yes,1430,,stimuli/lb_ly_c_first.jpg,,137911,prediction_trial,28,image-button-response,
1145,1_cube_black,,1,,,1,True,No,False,,0,0.0-13.0-0.0,,No,1438,,stimuli/hr_hb_c_first.jpg,,151170,prediction_trial,31,image-button-response,
1145,1_cube_black,,1,,,1,True,No,False,,1,0.0-14.0-0.0,,No,1088,,stimuli/hr_ly_c_first.jpg,,159690,prediction_trial,34,image-button-response,
1145,1_cube_black,,1,,,1,True,Yes,True,,3,0.0-15.0-0.0,,Yes,793,,stimuli/lb_ly_c_first.jpg,,168588,prediction_trial,37,image-button-response,
1145,1_cube_black,,1,,,1,True,No,False,,0,0.0-16.0-0.0,,No,1110,,stimuli/hr_hb_c_first.jpg,,181237,prediction_trial,40,image-button-response,
1145,1_cube_black,,1,,,1,True,No,False,,1,0.0-17.0-0.0,,No,986,,stimuli/hr_ly_c_first.jpg,,190083,prediction_trial,43,image-button-response,
1145,1_cube_black,,1,,,1,True,Yes,True,,2,0.0-18.0-0.0,,Yes,864,,stimuli/lb_hb_c_first.jpg,,200938,prediction_trial,46,image-button-response,
1145,1_cube_black,,1,,,1,True,Yes,True,,3,0.0-19.0-0.0,,Yes,1486,,stimuli/lb_ly_c_first.jpg,,211166,prediction_trial,49,image-button-response,
1145,1_cube_black,,1,,,1,True,Yes,True,,2,0.0-20.0-0.0,,Yes,1010,,stimuli/lb_hb_c_first.jpg,,221121,prediction_trial,52,image-button-response,
1145,1_cube_black,True,,True,"['<br><img src=stimuli/r_y_0.jpg style=width:256px></img', '<br><img src=stimuli/r_y_1.jpg style=width:256px></img', '<br><img src=stimuli/r_y_2.jpg style=width:256px></img', '<br><img src=stimuli/r_y_3.jpg style=width:256px></img']",1,,,,1,,0.0-22.0,[0],<br><img src=stimuli/r_y_1.jpg style=width:256px></img,7007,1,,hr_ly_c,241114,surprise_quiz,56,survey-multi-choice,
1145,1_cube_black,True,,True,"['<br><img src=stimuli/b_y_0.jpg style=width:256px></img', '<br><img src=stimuli/b_y_1.jpg style=width:256px></img', '<br><img src=stimuli/b_y_2.jpg style=width:256px></img', '<br><img src=stimuli/b_y_3.jpg style=width:256px></img']",1,,,,3,,0.0-23.0,[0],<br><img src=stimuli/b_y_3.jpg style=width:256px></img,5305,3,,lb_ly_c,246421,surprise_quiz,57,survey-multi-choice,
1145,1_cube_black,True,,True,"['<br><img src=stimuli/r_b_0.jpg style=width:256px></img', '<br><img src=stimuli/r_b_1.jpg style=width:256px></img', '<br><img src=stimuli/r_b_2.jpg style=width:256px></img', '<br><img src=stimuli/r_b_3.jpg style=width:256px></img']",1,,,,0,,0.0-24.0,[0],<br><img src=stimuli/r_b_0.jpg style=width:256px></img,4729,0,,hr_hb_c,251151,surprise_quiz,58,survey-multi-choice,
1145,1_cube_black,True,,True,"['<br><img src=stimuli/b_b_0.jpg style=width:256px></img', '<br><img src=stimuli/b_b_1.jpg style=width:256px></img', '<br><img src=stimuli/b_b_2.jpg style=width:256px></img', '<br><img src=stimuli/b_b_3.jpg style=width:256px></img']",1,,,,2,,0.0-25.0,[0],<br><img src=stimuli/b_b_2.jpg style=width:256px></img,3891,2,,lb_hb_c,255044,surprise_quiz,59,survey-multi-choice,
1132,1_cube_black,,1,,,1,True,Yes,True,,3,0.0-5.0-0.0,,Yes,2473,,stimuli/lb_ly_c_first.jpg,,32274,prediction_trial,7,image-button-response,
1132,1_cube_black,,1,,,1,True,No,False,,0,0.0-6.0-0.0,,No,1472,,stimuli/hr_hb_c_first.jpg,,43227,prediction_trial,10,image-button-response,
1132,1_cube_black,,0,,,1,False,No,False,,1,0.0-7.0-0.0,,Yes,2807,,stimuli/hr_ly_c_first.jpg,,53282,prediction_trial,13,image-button-response,
1132,1_cube_black,,0,,,1,False,No,False,,0,0.0-8.0-0.0,,Yes,2287,,stimuli/hr_hb_c_first.jpg,,63689,prediction_trial,16,image-button-response,
1132,1_cube_black,,1,,,1,True,No,False,,1,0.0-9.0-0.0,,No,1135,,stimuli/hr_ly_c_first.jpg,,72097,prediction_trial,19,image-button-response,
1132,1_cube_black,,1,,,1,True,Yes,True,,3,0.0-10.0-0.0,,Yes,1071,,stimuli/lb_ly_c_first.jpg,,80961,prediction_trial,22,image-button-response,
1132,1_cube_black,,1,,,1,True,Yes,True,,2,0.0-11.0-0.0,,Yes,1063,,stimuli/lb_hb_c_first.jpg,,91009,prediction_trial,25,image-button-response,
1132,1_cube_black,,1,,,1,True,No,False,,0,0.0-12.0-0.0,,No,3151,,stimuli/hr_hb_c_first.jpg,,102817,prediction_trial,28,image-button-response,
1132,1_cube_black,,1,,,1,True,Yes,True,,2,0.0-13.0-0.0,,Yes,1415,,stimuli/lb_hb_c_first.jpg,,111297,prediction_trial,31,image-button-response,
1132,1_cube_black,,1,,,1,True,No,False,,1,0.0-14.0-0.0,,No,935,,stimuli/hr_ly_c_first.jpg,,120866,prediction_trial,34,image-button-response,
1132,1_cube_black,,1,,,1,True,Yes,True,,2,0.0-15.0-0.0,,Yes,1199,,stimuli/lb_hb_c_first.jpg,,129986,prediction_trial,37,image-button-response,
1132,1_cube_black,,1,,,1,True,Yes,True,,3,0.0-16.0-0.0,,Yes,1159,,stimuli/lb_ly_c_first.jpg,,140074,prediction_trial,40,image-button-response,
1132,1_cube_black,,1,,,1,True,No,False,,1,0.0-17.0-0.0,,No,1031,,stimuli/hr_ly_c_first.jpg,,149858,prediction_trial,43,image-button-response,
1132,1_cube_black,,1,,,1,True,Yes,True,,3,0.0-18.0-0.0,,Yes,1023,,stimuli/lb_ly_c_first.jpg,,158762,prediction_trial,46,image-button-response,
1132,1_cube_black,,1,,,1,True,No,False,,0,0.0-19.0-0.0,,No,927,,stimuli/hr_hb_c_first.jpg,,168418,prediction_trial,49,image-button-response,
1132,1_cube_black,,1,,,1,True,Yes,True,,2,0.0-20.0-0.0,,Yes,911,,stimuli/lb_hb_c_first.jpg,,176506,prediction_trial,52,image-button-response,
1132,1_cube_black,True,,True,"['<br><img src=stimuli/r_y_0.jpg style=width:320px></img', '<br><img src=stimuli/r_y_1.jpg style=width:320px></img', '<br><img src=stimuli/r_y_2.jpg style=width:320px></img', '<br><img src=stimuli/r_y_3.jpg style=width:320px></img']",1,,,,1,,0.0-22.0,[0],<br><img src=stimuli/r_y_1.jpg style=width:320px></img,6630,1,,hr_ly_c,194946,surprise_quiz,56,survey-multi-choice,
1132,1_cube_black,False,,True,"['<br><img src=stimuli/b_y_0.jpg style=width:320px></img', '<br><img src=stimuli/b_y_1.jpg style=width:320px></img', '<br><img src=stimuli/b_y_2.jpg style=width:320px></img', '<br><img src=stimuli/b_y_3.jpg style=width:320px></img']",1,,,,3,,0.0-23.0,[0],<br><img src=stimuli/b_y_2.jpg style=width:320px></img,2630,2,,lb_ly_c,197577,surprise_quiz,57,survey-multi-choice,
1132,1_cube_black,False,,True,"['<br><img src=stimuli/r_b_0.jpg style=width:320px></img', '<br><img src=stimuli/r_b_1.jpg style=width:320px></img', '<br><img src=stimuli/r_b_2.jpg style=width:320px></img', '<br><img src=stimuli/r_b_3.jpg style=width:320px></img']",1,,,,0,,0.0-24.0,[0],<br><img src=stimuli/r_b_1.jpg style=width:320px></img,32550,1,,hr_hb_c,230129,surprise_quiz,58,survey-multi-choice,
1132,1_cube_black,False,,True,"['<br><img src=stimuli/b_b_0.jpg style=width:320px></img', '<br><img src=stimuli/b_b_1.jpg style=width:320px></img', '<br><img src=stimuli/b_b_2.jpg style=width:320px></img', '<br><img src=stimuli/b_b_3.jpg style=width:320px></img']",1,,,,2,,0.0-25.0,[0],<br><img src=stimuli/b_b_3.jpg style=width:320px></img,1886,3,,lb_hb_c,232018,surprise_quiz,59,survey-multi-choice,
1161,1_cube_black,,0,,,2,False,No,False,,0,0.0-5.0-0.0,,Yes,4802,,stimuli/hb_hy_c_first.jpg,,69082,prediction_trial,7,image-button-response,
1161,1_cube_black,,1,,,2,True,Yes,True,,3,0.0-6.0-0.0,,Yes,2019,,stimuli/lr_lb_c_first.jpg,,81627,prediction_trial,10,image-button-response,
1161,1_cube_black,,0,,,2,False,Yes,True,,2,0.0-7.0-0.0,,No,2043,,stimuli/lr_hy_c_first.jpg,,93794,prediction_trial,13,image-button-response,
1161,1_cube_black,,0,,,2,False,No,False,,0,0.0-8.0-0.0,,Yes,2744,,stimuli/hb_hy_c_first.jpg,,106469,prediction_trial,16,image-button-response,
1161,1_cube_black,,0,,,2,False,Yes,True,,2,0.0-9.0-0.0,,No,2408,,stimuli/lr_hy_c_first.jpg,,118568,prediction_trial,19,image-button-response,
1161,1_cube_black,,0,,,2,False,Yes,True,,3,0.0-10.0-0.0,,No,1637,,stimuli/lr_lb_c_first.jpg,,129552,prediction_trial,22,image-button-response,
1161,1_cube_black,,0,,,2,False,No,False,,1,0.0-11.0-0.0,,Yes,2024,,stimuli/hb_lb_c_first.jpg,,142013,prediction_trial,25,image-button-response,
1161,1_cube_black,,1,,,2,True,No,False,,0,0.0-12.0-0.0,,No,2476,,stimuli/hb_hy_c_first.jpg,,153017,prediction_trial,28,image-button-response,
1161,1_cube_black,,0,,,2,False,No,False,,1,0.0-13.0-0.0,,Yes,2395,,stimuli/hb_lb_c_first.jpg,,163887,prediction_trial,31,image-button-response,
1161,1_cube_black,,0,,,2,False,Yes,True,,2,0.0-14.0-0.0,,No,2453,,stimuli/lr_hy_c_first.jpg,,174788,prediction_trial,34,image-button-response,
1161,1_cube_black,,0,,,2,False,No,False,,1,0.0-15.0-0.0,,Yes,2367,,stimuli/hb_lb_c_first.jpg,,186814,prediction_trial,37,image-button-response,
1161,1_cube_black,,1,,,2,True,Yes,True,,3,0.0-16.0-0.0,,Yes,1383,,stimuli/lr_lb_c_first.jpg,,196556,prediction_trial,40,image-button-response,
1161,1_cube_black,,1,,,2,True,Yes,True,,2,0.0-17.0-0.0,,Yes,1819,,stimuli/lr_hy_c_first.jpg,,208646,prediction_trial,43,image-button-response,
1161,1_cube_black,,0,,,2,False,No,False,,0,0.0-18.0-0.0,,Yes,1793,,stimuli/hb_hy_c_first.jpg,,219722,prediction_trial,46,image-button-response,
1161,1_cube_black,,0,,,2,False,No,False,,1,0.0-19.0-0.0,,Yes,1340,,stimuli/hb_lb_c_first.jpg,,229560,prediction_trial,49,image-button-response,
1161,1_cube_black,,1,,,2,True,Yes,True,,3,0.0-20.0-0.0,,Yes,1591,,stimuli/lr_lb_c_first.jpg,,239410,prediction_trial,52,image-button-response,
1161,1_cube_black,False,,True,"['<br><img src=stimuli/b_y_0.jpg style=width:273.2px></img', '<br><img src=stimuli/b_y_1.jpg style=width:273.2px></img', '<br><img src=stimuli/b_y_2.jpg style=width:273.2px></img', '<br><img src=stimuli/b_y_3.jpg style=width:273.2px></img']",2,,,,0,,0.0-22.0,[0],<br><img src=stimuli/b_y_1.jpg style=width:273.2px></img,9796,1,,hb_hy_c,264357,surprise_quiz,56,survey-multi-choice,
1161,1_cube_black,True,,True,"['<br><img src=stimuli/r_b_0.jpg style=width:273.2px></img', '<br><img src=stimuli/r_b_1.jpg style=width:273.2px></img', '<br><img src=stimuli/r_b_2.jpg style=width:273.2px></img', '<br><img src=stimuli/r_b_3.jpg style=width:273.2px></img']",2,,,,3,,0.0-23.0,[0],<br><img src=stimuli/r_b_3.jpg style=width:273.2px></img,9739,3,,lr_lb_c,274100,surprise_quiz,57,survey-multi-choice,
1161,1_cube_black,False,,False,"['<br><img src=stimuli/b_b_0.jpg style=width:273.2px></img', '<br><img src=stimuli/b_b_1.jpg style=width:273.2px></img', '<br><img src=stimuli/b_b_2.jpg style=width:273.2px></img', '<br><img src=stimuli/b_b_3.jpg style=width:273.2px></img']",2,,,,1,,0.0-24.0,[0],<br><img src=stimuli/b_b_2.jpg style=width:273.2px></img,9656,2,,hb_lb_c,283759,surprise_quiz,58,survey-multi-choice,
1161,1_cube_black,False,,False,"['<br><img src=stimuli/r_y_0.jpg style=width:273.2px></img', '<br><img src=stimuli/r_y_1.jpg style=width:273.2px></img', '<br><img src=stimuli/r_y_2.jpg style=width:273.2px></img', '<br><img src=stimuli/r_y_3.jpg style=width:273.2px></img']",2,,,,2,,0.0-25.0,[0],<br><img src=stimuli/r_y_0.jpg style=width:273.2px></img,6169,0,,lr_hy_c,289931,surprise_quiz,59,survey-multi-choice,
1153,1_cube_black,,1,,,1,True,No,False,,0,0.0-5.0-0.0,,No,7082,,stimuli/hr_hb_c_first.jpg,,49084,prediction_trial,7,image-button-response,
1153,1_cube_black,,0,,,1,False,Yes,True,,2,0.0-6.0-0.0,,No,3494,,stimuli/lb_hb_c_first.jpg,,62258,prediction_trial,10,image-button-response,
1153,1_cube_black,,1,,,1,True,Yes,True,,3,0.0-7.0-0.0,,Yes,3963,,stimuli/lb_ly_c_first.jpg,,74984,prediction_trial,13,image-button-response,
1153,1_cube_black,,1,,,1,True,No,False,,0,0.0-8.0-0.0,,No,3897,,stimuli/hr_hb_c_first.jpg,,87802,prediction_trial,16,image-button-response,
1153,1_cube_black,,1,,,1,True,Yes,True,,2,0.0-9.0-0.0,,Yes,2287,,stimuli/lb_hb_c_first.jpg,,97566,prediction_trial,19,image-button-response,
1153,1_cube_black,,1,,,1,True,No,False,,1,0.0-10.0-0.0,,No,3068,,stimuli/hr_ly_c_first.jpg,,109336,prediction_trial,22,image-button-response,
1153,1_cube_black,,1,,,1,True,No,False,,0,0.0-11.0-0.0,,No,2737,,stimuli/hr_hb_c_first.jpg,,120051,prediction_trial,25,image-button-response,
1153,1_cube_black,,1,,,1,True,Yes,True,,3,0.0-12.0-0.0,,Yes,1353,,stimuli/lb_ly_c_first.jpg,,128696,prediction_trial,28,image-button-response,
1153,1_cube_black,,1,,,1,True,No,False,,1,0.0-13.0-0.0,,No,2063,,stimuli/hr_ly_c_first.jpg,,139608,prediction_trial,31,image-button-response,
1153,1_cube_black,,1,,,1,True,Yes,True,,3,0.0-14.0-0.0,,Yes,1405,,stimuli/lb_ly_c_first.jpg,,148983,prediction_trial,34,image-button-response,
1153,1_cube_black,,1,,,1,True,No,False,,1,0.0-15.0-0.0,,No,2355,,stimuli/hr_ly_c_first.jpg,,160321,prediction_trial,37,image-button-response,
1153,1_cube_black,,1,,,1,True,No,False,,0,0.0-16.0-0.0,,No,1360,,stimuli/hr_hb_c_first.jpg,,169653,prediction_trial,40,image-button-response,
1153,1_cube_black,,1,,,1,True,Yes,True,,2,0.0-17.0-0.0,,Yes,1564,,stimuli/lb_hb_c_first.jpg,,178568,prediction_trial,43,image-button-response,
1153,1_cube_black,,1,,,1,True,Yes,True,,3,0.0-18.0-0.0,,Yes,1315,,stimuli/lb_ly_c_first.jpg,,188577,prediction_trial,46,image-button-response,
1153,1_cube_black,,1,,,1,True,Yes,True,,2,0.0-19.0-0.0,,Yes,1372,,stimuli/lb_hb_c_first.jpg,,198992,prediction_trial,49,image-button-response,
1153,1_cube_black,,1,,,1,True,No,False,,1,0.0-20.0-0.0,,No,1486,,stimuli/hr_ly_c_first.jpg,,209283,prediction_trial,52,image-button-response,
1153,1_cube_black,True,,True,"['<br><img src=stimuli/b_y_0.jpg style=width:384px></img', '<br><img src=stimuli/b_y_1.jpg style=width:384px></img', '<br><img src=stimuli/b_y_2.jpg style=width:384px></img', '<br><img src=stimuli/b_y_3.jpg style=width:384px></img']",1,,,,3,,0.0-22.0,[0],<br><img src=stimuli/b_y_3.jpg style=width:384px></img,12189,3,,lb_ly_c,233497,surprise_quiz,56,survey-multi-choice,
1153,1_cube_black,True,,True,"['<br><img src=stimuli/b_b_0.jpg style=width:384px></img', '<br><img src=stimuli/b_b_1.jpg style=width:384px></img', '<br><img src=stimuli/b_b_2.jpg style=width:384px></img', '<br><img src=stimuli/b_b_3.jpg style=width:384px></img']",1,,,,2,,0.0-23.0,[0],<br><img src=stimuli/b_b_2.jpg style=width:384px></img,4858,2,,lb_hb_c,238357,surprise_quiz,57,survey-multi-choice,
1153,1_cube_black,True,,True,"['<br><img src=stimuli/r_b_0.jpg style=width:384px></img', '<br><img src=stimuli/r_b_1.jpg style=width:384px></img', '<br><img src=stimuli/r_b_2.jpg style=width:384px></img', '<br><img src=stimuli/r_b_3.jpg style=width:384px></img']",1,,,,0,,0.0-24.0,[0],<br><img src=stimuli/r_b_0.jpg style=width:384px></img,7276,0,,hr_hb_c,245635,surprise_quiz,58,survey-multi-choice,
1153,1_cube_black,True,,True,"['<br><img src=stimuli/r_y_0.jpg style=width:384px></img', '<br><img src=stimuli/r_y_1.jpg style=width:384px></img', '<br><img src=stimuli/r_y_2.jpg style=width:384px></img', '<br><img src=stimuli/r_y_3.jpg style=width:384px></img']",1,,,,1,,0.0-25.0,[0],<br><img src=stimuli/r_y_1.jpg style=width:384px></img,1414,1,,hr_ly_c,247049,surprise_quiz,59,survey-multi-choice,
1134,1_cube_black,,0,,,1,False,No,False,,1,0.0-5.0-0.0,,Yes,2628,,stimuli/hr_ly_c_first.jpg,,75720,prediction_trial,7,image-button-response,
1134,1_cube_black,,1,,,1,True,Yes,True,,2,0.0-6.0-0.0,,Yes,1142,,stimuli/lb_hb_c_first.jpg,,85535,prediction_trial,10,image-button-response,
1134,1_cube_black,,1,,,1,True,No,False,,0,0.0-7.0-0.0,,No,1540,,stimuli/hr_hb_c_first.jpg,,95841,prediction_trial,13,image-button-response,
1134,1_cube_black,,1,,,1,True,Yes,True,,3,0.0-8.0-0.0,,Yes,1465,,stimuli/lb_ly_c_first.jpg,,108234,prediction_trial,16,image-button-response,
1134,1_cube_black,,0,,,1,False,No,False,,1,0.0-9.0-0.0,,Yes,1676,,stimuli/hr_ly_c_first.jpg,,119099,prediction_trial,19,image-button-response,
1134,1_cube_black,,1,,,1,True,Yes,True,,2,0.0-10.0-0.0,,Yes,968,,stimuli/lb_hb_c_first.jpg,,128510,prediction_trial,22,image-button-response,
1134,1_cube_black,,1,,,1,True,No,False,,0,0.0-11.0-0.0,,No,1011,,stimuli/hr_hb_c_first.jpg,,138752,prediction_trial,25,image-button-response,
1134,1_cube_black,,1,,,1,True,Yes,True,,2,0.0-12.0-0.0,,Yes,898,,stimuli/lb_hb_c_first.jpg,,149647,prediction_trial,28,image-button-response,
1134,1_cube_black,,1,,,1,True,Yes,True,,3,0.0-13.0-0.0,,Yes,4570,,stimuli/lb_ly_c_first.jpg,,163528,prediction_trial,31,image-button-response,
1134,1_cube_black,,1,,,1,True,No,False,,1,0.0-14.0-0.0,,No,8930,,stimuli/hr_ly_c_first.jpg,,183884,prediction_trial,34,image-button-response,
1134,1_cube_black,,1,,,1,True,No,False,,0,0.0-15.0-0.0,,No,4408,,stimuli/hr_hb_c_first.jpg,,197293,prediction_trial,37,image-button-response,
1134,1_cube_black,,1,,,1,True,Yes,True,,3,0.0-16.0-0.0,,Yes,1008,,stimuli/lb_ly_c_first.jpg,,206792,prediction_trial,40,image-button-response,
1134,1_cube_black,,1,,,1,True,Yes,True,,2,0.0-17.0-0.0,,Yes,7916,,stimuli/lb_hb_c_first.jpg,,228473,prediction_trial,43,image-button-response,
1134,1_cube_black,,1,,,1,True,Yes,True,,3,0.0-18.0-0.0,,Yes,1043,,stimuli/lb_ly_c_first.jpg,,238865,prediction_trial,46,image-button-response,
1134,1_cube_black,,1,,,1,True,No,False,,0,0.0-19.0-0.0,,No,776,,stimuli/hr_hb_c_first.jpg,,248711,prediction_trial,49,image-button-response,
1134,1_cube_black,,1,,,1,True,No,False,,1,0.0-20.0-0.0,,No,780,,stimuli/hr_ly_c_first.jpg,,259695,prediction_trial,52,image-button-response,
1134,1_cube_black,True,,True,"['<br><img src=stimuli/r_y_0.jpg style=width:288px></img', '<br><img src=stimuli/r_y_1.jpg style=width:288px></img', '<br><img src=stimuli/r_y_2.jpg style=width:288px></img', '<br><img src=stimuli/r_y_3.jpg style=width:288px></img']",1,,,,1,,0.0-22.0,[0],<br><img src=stimuli/r_y_1.jpg style=width:288px></img,4971,1,,hr_ly_c,273665,surprise_quiz,56,survey-multi-choice,
1134,1_cube_black,False,,True,"['<br><img src=stimuli/b_b_0.jpg style=width:288px></img', '<br><img src=stimuli/b_b_1.jpg style=width:288px></img', '<br><img src=stimuli/b_b_2.jpg style=width:288px></img', '<br><img src=stimuli/b_b_3.jpg style=width:288px></img']",1,,,,2,,0.0-23.0,[0],<br><img src=stimuli/b_b_3.jpg style=width:288px></img,3889,3,,lb_hb_c,277558,surprise_quiz,57,survey-multi-choice,
1134,1_cube_black,True,,True,"['<br><img src=stimuli/r_b_0.jpg style=width:288px></img', '<br><img src=stimuli/r_b_1.jpg style=width:288px></img', '<br><img src=stimuli/r_b_2.jpg style=width:288px></img', '<br><img src=stimuli/r_b_3.jpg style=width:288px></img']",1,,,,0,,0.0-24.0,[0],<br><img src=stimuli/r_b_0.jpg style=width:288px></img,3961,0,,hr_hb_c,281521,surprise_quiz,58,survey-multi-choice,
1134,1_cube_black,False,,True,"['<br><img src=stimuli/b_y_0.jpg style=width:288px></img', '<br><img src=stimuli/b_y_1.jpg style=width:288px></img', '<br><img src=stimuli/b_y_2.jpg style=width:288px></img', '<br><img src=stimuli/b_y_3.jpg style=width:288px></img']",1,,,,3,,0.0-25.0,[0],<br><img src=stimuli/b_y_2.jpg style=width:288px></img,2899,2,,lb_ly_c,284421,surprise_quiz,59,survey-multi-choice,
1210,1_cube_black,,1,,,1,True,No,False,,1,0.0-5.0-0.0,,No,4063,,stimuli/hr_ly_c_first.jpg,,85623,prediction_trial,7,image-button-response,
1210,1_cube_black,,0,,,1,False,No,False,,0,0.0-6.0-0.0,,Yes,3955,,stimuli/hr_hb_c_first.jpg,,97907,prediction_trial,10,image-button-response,
1210,1_cube_black,,1,,,1,True,No,False,,1,0.0-7.0-0.0,,No,4794,,stimuli/hr_ly_c_first.jpg,,110856,prediction_trial,13,image-button-response,
1210,1_cube_black,,1,,,1,True,Yes,True,,3,0.0-8.0-0.0,,Yes,5397,,stimuli/lb_ly_c_first.jpg,,124379,prediction_trial,16,image-button-response,
1210,1_cube_black,,1,,,1,True,No,False,,0,0.0-9.0-0.0,,No,2862,,stimuli/hr_hb_c_first.jpg,,136994,prediction_trial,19,image-button-response,
1210,1_cube_black,,0,,,1,False,Yes,True,,3,0.0-10.0-0.0,,No,4631,,stimuli/lb_ly_c_first.jpg,,149682,prediction_trial,22,image-button-response,
1210,1_cube_black,,1,,,1,True,No,False,,0,0.0-11.0-0.0,,No,1927,,stimuli/hr_hb_c_first.jpg,,161259,prediction_trial,25,image-button-response,
1210,1_cube_black,,0,,,1,False,Yes,True,,2,0.0-12.0-0.0,,No,2397,,stimuli/lb_hb_c_first.jpg,,170815,prediction_trial,28,image-button-response,
1210,1_cube_black,,1,,,1,True,Yes,True,,3,0.0-13.0-0.0,,Yes,2031,,stimuli/lb_ly_c_first.jpg,,181392,prediction_trial,31,image-button-response,
1210,1_cube_black,,0,,,1,False,No,False,,1,0.0-14.0-0.0,,Yes,4391,,stimuli/hr_ly_c_first.jpg,,194674,prediction_trial,34,image-button-response,
1210,1_cube_black,,1,,,1,True,Yes,True,,2,0.0-15.0-0.0,,Yes,2101,,stimuli/lb_hb_c_first.jpg,,204603,prediction_trial,37,image-button-response,
1210,1_cube_black,,1,,,1,True,Yes,True,,3,0.0-16.0-0.0,,Yes,1639,,stimuli/lb_ly_c_first.jpg,,214891,prediction_trial,40,image-button-response,
1210,1_cube_black,,1,,,1,True,No,False,,1,0.0-17.0-0.0,,No,2781,,stimuli/hr_ly_c_first.jpg,,226376,prediction_trial,43,image-button-response,
1210,1_cube_black,,1,,,1,True,Yes,True,,2,0.0-18.0-0.0,,Yes,1519,,stimuli/lb_hb_c_first.jpg,,235696,prediction_trial,46,image-button-response,
1210,1_cube_black,,1,,,1,True,No,False,,0,0.0-19.0-0.0,,No,2669,,stimuli/hr_hb_c_first.jpg,,246835,prediction_trial,49,image-button-response,
1210,1_cube_black,,1,,,1,True,Yes,True,,2,0.0-20.0-0.0,,Yes,1311,,stimuli/lb_hb_c_first.jpg,,255219,prediction_trial,52,image-button-response,
1210,1_cube_black,True,,True,"['<br><img src=stimuli/b_y_0.jpg style=width:384px></img', '<br><img src=stimuli/b_y_1.jpg style=width:384px></img', '<br><img src=stimuli/b_y_2.jpg style=width:384px></img', '<br><img src=stimuli/b_y_3.jpg style=width:384px></img']",1,,,,3,,0.0-22.0,[0],<br><img src=stimuli/b_y_3.jpg style=width:384px></img,5194,3,,lb_ly_c,273751,surprise_quiz,56,survey-multi-choice,
1210,1_cube_black,True,,True,"['<br><img src=stimuli/b_b_0.jpg style=width:384px></img', '<br><img src=stimuli/b_b_1.jpg style=width:384px></img', '<br><img src=stimuli/b_b_2.jpg style=width:384px></img', '<br><img src=stimuli/b_b_3.jpg style=width:384px></img']",1,,,,2,,0.0-23.0,[0],<br><img src=stimuli/b_b_2.jpg style=width:384px></img,2850,2,,lb_hb_c,276602,surprise_quiz,57,survey-multi-choice,
1210,1_cube_black,True,,True,"['<br><img src=stimuli/r_y_0.jpg style=width:384px></img', '<br><img src=stimuli/r_y_1.jpg style=width:384px></img', '<br><img src=stimuli/r_y_2.jpg style=width:384px></img', '<br><img src=stimuli/r_y_3.jpg style=width:384px></img']",1,,,,1,,0.0-24.0,[0],<br><img src=stimuli/r_y_1.jpg style=width:384px></img,4115,1,,hr_ly_c,280718,surprise_quiz,58,survey-multi-choice,
1210,1_cube_black,True,,True,"['<br><img src=stimuli/r_b_0.jpg style=width:384px></img', '<br><img src=stimuli/r_b_1.jpg style=width:384px></img', '<br><img src=stimuli/r_b_2.jpg style=width:384px></img', '<br><img src=stimuli/r_b_3.jpg style=width:384px></img']",1,,,,0,,0.0-25.0,[0],<br><img src=stimuli/r_b_0.jpg style=width:384px></img,3023,0,,hr_hb_c,283742,surprise_quiz,59,survey-multi-choice,
1173,1_cube_black,,1,,,1,True,No,False,,0,0.0-5.0-0.0,,No,5017,,stimuli/hr_hb_c_first.jpg,,55231,prediction_trial,7,image-button-response,
1173,1_cube_black,,1,,,1,True,No,False,,1,0.0-6.0-0.0,,No,1849,,stimuli/hr_ly_c_first.jpg,,65483,prediction_trial,10,image-button-response,
1173,1_cube_black,,0,,,1,False,Yes,True,,2,0.0-7.0-0.0,,No,3835,,stimuli/lb_hb_c_first.jpg,,77912,prediction_trial,13,image-button-response,
1173,1_cube_black,,1,,,1,True,Yes,True,,3,0.0-8.0-0.0,,Yes,1468,,stimuli/lb_ly_c_first.jpg,,88234,prediction_trial,16,image-button-response,
1173,1_cube_black,,1,,,1,True,No,False,,1,0.0-9.0-0.0,,No,3209,,stimuli/hr_ly_c_first.jpg,,100639,prediction_trial,19,image-button-response,
1173,1_cube_black,,1,,,1,True,Yes,True,,2,0.0-10.0-0.0,,Yes,1639,,stimuli/lb_hb_c_first.jpg,,110724,prediction_trial,22,image-button-response,
1173,1_cube_black,,1,,,1,True,Yes,True,,3,0.0-11.0-0.0,,Yes,1340,,stimuli/lb_ly_c_first.jpg,,121310,prediction_trial,25,image-button-response,
1173,1_cube_black,,1,,,1,True,No,False,,0,0.0-12.0-0.0,,No,1631,,stimuli/hr_hb_c_first.jpg,,132342,prediction_trial,28,image-button-response,
1173,1_cube_black,,1,,,1,True,Yes,True,,3,0.0-13.0-0.0,,Yes,2193,,stimuli/lb_ly_c_first.jpg,,142320,prediction_trial,31,image-button-response,
1173,1_cube_black,,1,,,1,True,No,False,,0,0.0-14.0-0.0,,No,1883,,stimuli/hr_hb_c_first.jpg,,153344,prediction_trial,34,image-button-response,
1173,1_cube_black,,1,,,1,True,No,False,,1,0.0-15.0-0.0,,No,1716,,stimuli/hr_ly_c_first.jpg,,162979,prediction_trial,37,image-button-response,
1173,1_cube_black,,1,,,1,True,No,False,,0,0.0-16.0-0.0,,No,1424,,stimuli/hr_hb_c_first.jpg,,172513,prediction_trial,40,image-button-response,
1173,1_cube_black,,1,,,1,True,Yes,True,,2,0.0-17.0-0.0,,Yes,1488,,stimuli/lb_hb_c_first.jpg,,181425,prediction_trial,43,image-button-response,
1173,1_cube_black,,1,,,1,True,Yes,True,,3,0.0-18.0-0.0,,Yes,5141,,stimuli/lb_ly_c_first.jpg,,195982,prediction_trial,46,image-button-response,
1173,1_cube_black,,1,,,1,True,No,False,,1,0.0-19.0-0.0,,No,1110,,stimuli/hr_ly_c_first.jpg,,206604,prediction_trial,49,image-button-response,
1173,1_cube_black,,1,,,1,True,Yes,True,,2,0.0-20.0-0.0,,Yes,1583,,stimuli/lb_hb_c_first.jpg,,216453,prediction_trial,52,image-button-response,
1173,1_cube_black,True,,True,"['<br><img src=stimuli/r_y_0.jpg style=width:320px></img', '<br><img src=stimuli/r_y_1.jpg style=width:320px></img', '<br><img src=stimuli/r_y_2.jpg style=width:320px></img', '<br><img src=stimuli/r_y_3.jpg style=width:320px></img']",1,,,,1,,0.0-22.0,[0],<br><img src=stimuli/r_y_1.jpg style=width:320px></img,6188,1,,hr_ly_c,235978,surprise_quiz,56,survey-multi-choice,
1173,1_cube_black,True,,True,"['<br><img src=stimuli/b_y_0.jpg style=width:320px></img', '<br><img src=stimuli/b_y_1.jpg style=width:320px></img', '<br><img src=stimuli/b_y_2.jpg style=width:320px></img', '<br><img src=stimuli/b_y_3.jpg style=width:320px></img']",1,,,,3,,0.0-23.0,[0],<br><img src=stimuli/b_y_3.jpg style=width:320px></img,3950,3,,lb_ly_c,239929,surprise_quiz,57,survey-multi-choice,
1173,1_cube_black,True,,True,"['<br><img src=stimuli/r_b_0.jpg style=width:320px></img', '<br><img src=stimuli/r_b_1.jpg style=width:320px></img', '<br><img src=stimuli/r_b_2.jpg style=width:320px></img', '<br><img src=stimuli/r_b_3.jpg style=width:320px></img']",1,,,,0,,0.0-24.0,[0],<br><img src=stimuli/r_b_0.jpg style=width:320px></img,3642,0,,hr_hb_c,243573,surprise_quiz,58,survey-multi-choice,
1173,1_cube_black,True,,True,"['<br><img src=stimuli/b_b_0.jpg style=width:320px></img', '<br><img src=stimuli/b_b_1.jpg style=width:320px></img', '<br><img src=stimuli/b_b_2.jpg style=width:320px></img', '<br><img src=stimuli/b_b_3.jpg style=width:320px></img']",1,,,,2,,0.0-25.0,[0],<br><img src=stimuli/b_b_2.jpg style=width:320px></img,4554,2,,lb_hb_c,248129,surprise_quiz,59,survey-multi-choice,
1218,1_cube_black,,1,,,1,True,No,False,,0,0.0-5.0-0.0,,No,5954,,stimuli/hr_hb_c_first.jpg,,243376,prediction_trial,7,image-button-response,
1218,1_cube_black,,1,,,1,True,No,False,,1,0.0-6.0-0.0,,No,2469,,stimuli/hr_ly_c_first.jpg,,253384,prediction_trial,10,image-button-response,
1218,1_cube_black,,1,,,1,True,Yes,True,,2,0.0-7.0-0.0,,Yes,3740,,stimuli/lb_hb_c_first.jpg,,266051,prediction_trial,13,image-button-response,
1218,1_cube_black,,1,,,1,True,No,False,,1,0.0-8.0-0.0,,No,2237,,stimuli/hr_ly_c_first.jpg,,277280,prediction_trial,16,image-button-response,
1218,1_cube_black,,1,,,1,True,Yes,True,,3,0.0-9.0-0.0,,Yes,2004,,stimuli/lb_ly_c_first.jpg,,287519,prediction_trial,19,image-button-response,
1218,1_cube_black,,1,,,1,True,Yes,True,,2,0.0-10.0-0.0,,Yes,2035,,stimuli/lb_hb_c_first.jpg,,298495,prediction_trial,22,image-button-response,
1218,1_cube_black,,1,,,1,True,No,False,,0,0.0-11.0-0.0,,No,1092,,stimuli/hr_hb_c_first.jpg,,309015,prediction_trial,25,image-button-response,
1218,1_cube_black,,1,,,1,True,Yes,True,,3,0.0-12.0-0.0,,Yes,1107,,stimuli/lb_ly_c_first.jpg,,317407,prediction_trial,28,image-button-response,
1218,1_cube_black,,1,,,1,True,Yes,True,,2,0.0-13.0-0.0,,Yes,15628,,stimuli/lb_hb_c_first.jpg,,368575,prediction_trial,31,image-button-response,
1218,1_cube_black,,1,,,1,True,No,False,,0,0.0-14.0-0.0,,No,3068,,stimuli/hr_hb_c_first.jpg,,380535,prediction_trial,34,image-button-response,
1218,1_cube_black,,1,,,1,True,Yes,True,,3,0.0-15.0-0.0,,Yes,1858,,stimuli/lb_ly_c_first.jpg,,389783,prediction_trial,37,image-button-response,
1218,1_cube_black,,1,,,1,True,No,False,,0,0.0-16.0-0.0,,No,884,,stimuli/hr_hb_c_first.jpg,,399584,prediction_trial,40,image-button-response,
1218,1_cube_black,,1,,,1,True,No,False,,1,0.0-17.0-0.0,,No,1114,,stimuli/hr_ly_c_first.jpg,,408070,prediction_trial,43,image-button-response,
1218,1_cube_black,,1,,,1,True,Yes,True,,3,0.0-18.0-0.0,,Yes,1036,,stimuli/lb_ly_c_first.jpg,,417375,prediction_trial,46,image-button-response,
1218,1_cube_black,,1,,,1,True,No,False,,1,0.0-19.0-0.0,,No,1404,,stimuli/hr_ly_c_first.jpg,,427847,prediction_trial,49,image-button-response,
1218,1_cube_black,,1,,,1,True,Yes,True,,2,0.0-20.0-0.0,,Yes,1284,,stimuli/lb_hb_c_first.jpg,,437407,prediction_trial,52,image-button-response,
1218,1_cube_black,False,,True,"['<br><img src=stimuli/b_y_0.jpg style=width:273.2px></img', '<br><img src=stimuli/b_y_1.jpg style=width:273.2px></img', '<br><img src=stimuli/b_y_2.jpg style=width:273.2px></img', '<br><img src=stimuli/b_y_3.jpg style=width:273.2px></img']",1,,,,3,,0.0-22.0,[0],<br><img src=stimuli/b_y_2.jpg style=width:273.2px></img,11706,2,,lb_ly_c,463632,surprise_quiz,56,survey-multi-choice,
1218,1_cube_black,True,,True,"['<br><img src=stimuli/r_b_0.jpg style=width:273.2px></img', '<br><img src=stimuli/r_b_1.jpg style=width:273.2px></img', '<br><img src=stimuli/r_b_2.jpg style=width:273.2px></img', '<br><img src=stimuli/r_b_3.jpg style=width:273.2px></img']",1,,,,0,,0.0-23.0,[0],<br><img src=stimuli/r_b_0.jpg style=width:273.2px></img,7771,0,,hr_hb_c,471409,surprise_quiz,57,survey-multi-choice,
1218,1_cube_black,True,,True,"['<br><img src=stimuli/r_y_0.jpg style=width:273.2px></img', '<br><img src=stimuli/r_y_1.jpg style=width:273.2px></img', '<br><img src=stimuli/r_y_2.jpg style=width:273.2px></img', '<br><img src=stimuli/r_y_3.jpg style=width:273.2px></img']",1,,,,1,,0.0-24.0,[0],<br><img src=stimuli/r_y_1.jpg style=width:273.2px></img,6808,1,,hr_ly_c,478224,surprise_quiz,58,survey-multi-choice,
1218,1_cube_black,False,,True,"['<br><img src=stimuli/b_b_0.jpg style=width:273.2px></img', '<br><img src=stimuli/b_b_1.jpg style=width:273.2px></img', '<br><img src=stimuli/b_b_2.jpg style=width:273.2px></img', '<br><img src=stimuli/b_b_3.jpg style=width:273.2px></img']",1,,,,2,,0.0-25.0,[0],<br><img src=stimuli/b_b_3.jpg style=width:273.2px></img,6475,3,,lb_hb_c,484704,surprise_quiz,59,survey-multi-choice,
1165,1_cube_black,,1,,,1,True,Yes,True,,2,0.0-5.0-0.0,,Yes,4408,,stimuli/lb_hb_c_first.jpg,,83326,prediction_trial,7,image-button-response,
1165,1_cube_black,,0,,,1,False,No,False,,0,0.0-6.0-0.0,,Yes,2839,,stimuli/hr_hb_c_first.jpg,,95358,prediction_trial,10,image-button-response,
1165,1_cube_black,,1,,,1,True,Yes,True,,2,0.0-7.0-0.0,,Yes,1806,,stimuli/lb_hb_c_first.jpg,,105302,prediction_trial,13,image-button-response,
1165,1_cube_black,,1,,,1,True,No,False,,1,0.0-8.0-0.0,,No,1651,,stimuli/hr_ly_c_first.jpg,,133326,prediction_trial,16,image-button-response,
1165,1_cube_black,,1,,,1,True,Yes,True,,3,0.0-9.0-0.0,,Yes,1599,,stimuli/lb_ly_c_first.jpg,,152910,prediction_trial,19,image-button-response,
1165,1_cube_black,,0,,,1,False,Yes,True,,2,0.0-10.0-0.0,,No,1275,,stimuli/lb_hb_c_first.jpg,,165918,prediction_trial,22,image-button-response,
1165,1_cube_black,,0,,,1,False,Yes,True,,3,0.0-11.0-0.0,,No,419,,stimuli/lb_ly_c_first.jpg,,177890,prediction_trial,25,image-button-response,
1165,1_cube_black,,1,,,1,True,No,False,,1,0.0-12.0-0.0,,No,1863,,stimuli/hr_ly_c_first.jpg,,189610,prediction_trial,28,image-button-response,
1165,1_cube_black,,1,,,1,True,No,False,,0,0.0-13.0-0.0,,No,1795,,stimuli/hr_hb_c_first.jpg,,199474,prediction_trial,31,image-button-response,
1165,1_cube_black,,1,,,1,True,No,False,,1,0.0-14.0-0.0,,No,1520,,stimuli/hr_ly_c_first.jpg,,208242,prediction_trial,34,image-button-response,
1165,1_cube_black,,1,,,1,True,Yes,True,,2,0.0-15.0-0.0,,Yes,1147,,stimuli/lb_hb_c_first.jpg,,217274,prediction_trial,37,image-button-response,
1165,1_cube_black,,1,,,1,True,Yes,True,,3,0.0-16.0-0.0,,Yes,719,,stimuli/lb_ly_c_first.jpg,,227890,prediction_trial,40,image-button-response,
1165,1_cube_black,,1,,,1,True,No,False,,0,0.0-17.0-0.0,,No,1319,,stimuli/hr_hb_c_first.jpg,,238122,prediction_trial,43,image-button-response,
1165,1_cube_black,,1,,,1,True,Yes,True,,3,0.0-18.0-0.0,,Yes,1039,,stimuli/lb_ly_c_first.jpg,,246658,prediction_trial,46,image-button-response,
1165,1_cube_black,,1,,,1,True,No,False,,0,0.0-19.0-0.0,,No,927,,stimuli/hr_hb_c_first.jpg,,256482,prediction_trial,49,image-button-response,
1165,1_cube_black,,1,,,1,True,No,False,,1,0.0-20.0-0.0,,No,891,,stimuli/hr_ly_c_first.jpg,,296290,prediction_trial,52,image-button-response,
1165,1_cube_black,True,,True,"['<br><img src=stimuli/b_b_0.jpg style=width:384px></img', '<br><img src=stimuli/b_b_1.jpg style=width:384px></img', '<br><img src=stimuli/b_b_2.jpg style=width:384px></img', '<br><img src=stimuli/b_b_3.jpg style=width:384px></img']",1,,,,2,,0.0-22.0,[0],<br><img src=stimuli/b_b_2.jpg style=width:384px></img,4803,2,,lb_hb_c,310918,surprise_quiz,56,survey-multi-choice,
1165,1_cube_black,True,,True,"['<br><img src=stimuli/b_y_0.jpg style=width:384px></img', '<br><img src=stimuli/b_y_1.jpg style=width:384px></img', '<br><img src=stimuli/b_y_2.jpg style=width:384px></img', '<br><img src=stimuli/b_y_3.jpg style=width:384px></img']",1,,,,3,,0.0-23.0,[0],<br><img src=stimuli/b_y_3.jpg style=width:384px></img,4427,3,,lb_ly_c,315346,surprise_quiz,57,survey-multi-choice,
1165,1_cube_black,False,,True,"['<br><img src=stimuli/r_b_0.jpg style=width:384px></img', '<br><img src=stimuli/r_b_1.jpg style=width:384px></img', '<br><img src=stimuli/r_b_2.jpg style=width:384px></img', '<br><img src=stimuli/r_b_3.jpg style=width:384px></img']",1,,,,0,,0.0-24.0,[0],<br><img src=stimuli/r_b_1.jpg style=width:384px></img,5999,1,,hr_hb_c,321346,surprise_quiz,58,survey-multi-choice,
1165,1_cube_black,False,,True,"['<br><img src=stimuli/r_y_0.jpg style=width:384px></img', '<br><img src=stimuli/r_y_1.jpg style=width:384px></img', '<br><img src=stimuli/r_y_2.jpg style=width:384px></img', '<br><img src=stimuli/r_y_3.jpg style=width:384px></img']",1,,,,1,,0.0-25.0,[0],<br><img src=stimuli/r_y_0.jpg style=width:384px></img,1575,0,,hr_ly_c,322922,surprise_quiz,59,survey-multi-choice,
1141,1_cube_black,,0,,,1,False,Yes,True,,3,0.0-5.0-0.0,,No,3277,,stimuli/lb_ly_c_first.jpg,,55031,prediction_trial,11,image-button-response,
1141,1_cube_black,,1,,,1,True,Yes,True,,2,0.0-6.0-0.0,,Yes,1383,,stimuli/lb_hb_c_first.jpg,,66344,prediction_trial,14,image-button-response,
1141,1_cube_black,,1,,,1,True,No,False,,0,0.0-7.0-0.0,,No,1482,,stimuli/hr_hb_c_first.jpg,,77073,prediction_trial,17,image-button-response,
1141,1_cube_black,,1,,,1,True,No,False,,1,0.0-8.0-0.0,,No,1816,,stimuli/hr_ly_c_first.jpg,,86389,prediction_trial,20,image-button-response,
1141,1_cube_black,,0,,,1,False,No,False,,0,0.0-9.0-0.0,,Yes,1322,,stimuli/hr_hb_c_first.jpg,,96047,prediction_trial,23,image-button-response,
1141,1_cube_black,,1,,,1,True,Yes,True,,3,0.0-10.0-0.0,,Yes,1233,,stimuli/lb_ly_c_first.jpg,,104868,prediction_trial,26,image-button-response,
1141,1_cube_black,,1,,,1,True,No,False,,0,0.0-11.0-0.0,,No,1001,,stimuli/hr_hb_c_first.jpg,,114968,prediction_trial,29,image-button-response,
1141,1_cube_black,,1,,,1,True,No,False,,1,0.0-12.0-0.0,,No,1187,,stimuli/hr_ly_c_first.jpg,,123767,prediction_trial,32,image-button-response,
1141,1_cube_black,,1,,,1,True,Yes,True,,2,0.0-13.0-0.0,,Yes,937,,stimuli/lb_hb_c_first.jpg,,132794,prediction_trial,35,image-button-response,
1141,1_cube_black,,1,,,1,True,No,False,,1,0.0-14.0-0.0,,No,1519,,stimuli/hr_ly_c_first.jpg,,143461,prediction_trial,38,image-button-response,
1141,1_cube_black,,1,,,1,True,Yes,True,,3,0.0-15.0-0.0,,Yes,988,,stimuli/lb_ly_c_first.jpg,,152573,prediction_trial,41,image-button-response,
1141,1_cube_black,,1,,,1,True,Yes,True,,2,0.0-16.0-0.0,,Yes,871,,stimuli/lb_hb_c_first.jpg,,162461,prediction_trial,44,image-button-response,
1141,1_cube_black,,1,,,1,True,Yes,True,,3,0.0-17.0-0.0,,Yes,1027,,stimuli/lb_ly_c_first.jpg,,172305,prediction_trial,47,image-button-response,
1141,1_cube_black,,1,,,1,True,No,False,,1,0.0-18.0-0.0,,No,1043,,stimuli/hr_ly_c_first.jpg,,182290,prediction_trial,50,image-button-response,
1141,1_cube_black,,1,,,1,True,No,False,,0,0.0-19.0-0.0,,No,1163,,stimuli/hr_hb_c_first.jpg,,191587,prediction_trial,53,image-button-response,
1141,1_cube_black,,1,,,1,True,Yes,True,,2,0.0-20.0-0.0,,Yes,994,,stimuli/lb_hb_c_first.jpg,,200100,prediction_trial,56,image-button-response,
1141,1_cube_black,True,,True,"['<br><img src=stimuli/b_b_0.jpg style=width:216px></img', '<br><img src=stimuli/b_b_1.jpg style=width:216px></img', '<br><img src=stimuli/b_b_2.jpg style=width:216px></img', '<br><img src=stimuli/b_b_3.jpg style=width:216px></img']",1,,,,2,,0.0-22.0,[0],<br><img src=stimuli/b_b_2.jpg style=width:216px></img,6332,2,,lb_hb_c,216426,surprise_quiz,60,survey-multi-choice,
1141,1_cube_black,True,,True,"['<br><img src=stimuli/r_b_0.jpg style=width:216px></img', '<br><img src=stimuli/r_b_1.jpg style=width:216px></img', '<br><img src=stimuli/r_b_2.jpg style=width:216px></img', '<br><img src=stimuli/r_b_3.jpg style=width:216px></img']",1,,,,0,,0.0-23.0,[0],<br><img src=stimuli/r_b_0.jpg style=width:216px></img,3150,0,,hr_hb_c,219578,surprise_quiz,61,survey-multi-choice,
1141,1_cube_black,False,,True,"['<br><img src=stimuli/r_y_0.jpg style=width:216px></img', '<br><img src=stimuli/r_y_1.jpg style=width:216px></img', '<br><img src=stimuli/r_y_2.jpg style=width:216px></img', '<br><img src=stimuli/r_y_3.jpg style=width:216px></img']",1,,,,1,,0.0-24.0,[0],<br><img src=stimuli/r_y_0.jpg style=width:216px></img,4894,0,,hr_ly_c,224476,surprise_quiz,62,survey-multi-choice,
1141,1_cube_black,True,,True,"['<br><img src=stimuli/b_y_0.jpg style=width:216px></img', '<br><img src=stimuli/b_y_1.jpg style=width:216px></img', '<br><img src=stimuli/b_y_2.jpg style=width:216px></img', '<br><img src=stimuli/b_y_3.jpg style=width:216px></img']",1,,,,3,,0.0-25.0,[0],<br><img src=stimuli/b_y_3.jpg style=width:216px></img,3167,3,,lb_ly_c,227648,surprise_quiz,63,survey-multi-choice,
1201,1_cube_black,,1,,,1,True,No,False,,1,0.0-5.0-0.0,,No,6170,,stimuli/hr_ly_c_first.jpg,,100500,prediction_trial,7,image-button-response,
1201,1_cube_black,,1,,,1,True,Yes,True,,2,0.0-6.0-0.0,,Yes,7242,,stimuli/lb_hb_c_first.jpg,,116846,prediction_trial,10,image-button-response,
1201,1_cube_black,,0,,,1,False,No,False,,0,0.0-7.0-0.0,,Yes,3019,,stimuli/hr_hb_c_first.jpg,,129148,prediction_trial,13,image-button-response,
1201,1_cube_black,,1,,,1,True,Yes,True,,3,0.0-8.0-0.0,,Yes,3536,,stimuli/lb_ly_c_first.jpg,,140367,prediction_trial,16,image-button-response,
1201,1_cube_black,,0,,,1,False,No,False,,0,0.0-9.0-0.0,,Yes,13022,,stimuli/hr_hb_c_first.jpg,,163803,prediction_trial,19,image-button-response,
1201,1_cube_black,,1,,,1,True,Yes,True,,3,0.0-10.0-0.0,,Yes,2005,,stimuli/lb_ly_c_first.jpg,,173756,prediction_trial,22,image-button-response,
1201,1_cube_black,,1,,,1,True,No,False,,1,0.0-11.0-0.0,,No,2624,,stimuli/hr_ly_c_first.jpg,,197102,prediction_trial,25,image-button-response,
1201,1_cube_black,,1,,,1,True,Yes,True,,3,0.0-12.0-0.0,,Yes,1363,,stimuli/lb_ly_c_first.jpg,,206817,prediction_trial,28,image-button-response,
1201,1_cube_black,,1,,,1,True,Yes,True,,2,0.0-13.0-0.0,,Yes,1430,,stimuli/lb_hb_c_first.jpg,,217566,prediction_trial,31,image-button-response,
1201,1_cube_black,,1,,,1,True,No,False,,0,0.0-14.0-0.0,,No,2338,,stimuli/hr_hb_c_first.jpg,,229001,prediction_trial,34,image-button-response,
1201,1_cube_black,,1,,,1,True,Yes,True,,2,0.0-15.0-0.0,,Yes,18484,,stimuli/lb_hb_c_first.jpg,,269914,prediction_trial,37,image-button-response,
1201,1_cube_black,,1,,,1,True,No,False,,1,0.0-16.0-0.0,,No,5272,,stimuli/hr_ly_c_first.jpg,,288379,prediction_trial,40,image-button-response,
1201,1_cube_black,,1,,,1,True,Yes,True,,2,0.0-17.0-0.0,,Yes,15980,,stimuli/lb_hb_c_first.jpg,,312690,prediction_trial,43,image-button-response,
1201,1_cube_black,,1,,,1,True,No,False,,0,0.0-18.0-0.0,,No,1686,,stimuli/hr_hb_c_first.jpg,,323898,prediction_trial,46,image-button-response,
1201,1_cube_black,,0,,,1,False,No,False,,1,0.0-19.0-0.0,,Yes,4420,,stimuli/hr_ly_c_first.jpg,,336000,prediction_trial,49,image-button-response,
1201,1_cube_black,,1,,,1,True,Yes,True,,3,0.0-20.0-0.0,,Yes,37149,,stimuli/lb_ly_c_first.jpg,,381688,prediction_trial,52,image-button-response,
1201,1_cube_black,False,,True,"['<br><img src=stimuli/b_y_0.jpg style=width:384px></img', '<br><img src=stimuli/b_y_1.jpg style=width:384px></img', '<br><img src=stimuli/b_y_2.jpg style=width:384px></img', '<br><img src=stimuli/b_y_3.jpg style=width:384px></img']",1,,,,3,,0.0-22.0,[0],<br><img src=stimuli/b_y_2.jpg style=width:384px></img,8621,2,,lb_ly_c,402082,surprise_quiz,56,survey-multi-choice,
1201,1_cube_black,False,,False,"['<br><img src=stimuli/b_b_0.jpg style=width:384px></img', '<br><img src=stimuli/b_b_1.jpg style=width:384px></img', '<br><img src=stimuli/b_b_2.jpg style=width:384px></img', '<br><img src=stimuli/b_b_3.jpg style=width:384px></img']",1,,,,2,,0.0-23.0,[0],<br><img src=stimuli/b_b_1.jpg style=width:384px></img,27878,1,,lb_hb_c,429965,surprise_quiz,57,survey-multi-choice,
1201,1_cube_black,True,,True,"['<br><img src=stimuli/r_y_0.jpg style=width:384px></img', '<br><img src=stimuli/r_y_1.jpg style=width:384px></img', '<br><img src=stimuli/r_y_2.jpg style=width:384px></img', '<br><img src=stimuli/r_y_3.jpg style=width:384px></img']",1,,,,1,,0.0-24.0,[0],<br><img src=stimuli/r_y_1.jpg style=width:384px></img,4638,1,,hr_ly_c,434610,surprise_quiz,58,survey-multi-choice,
1201,1_cube_black,False,,False,"['<br><img src=stimuli/r_b_0.jpg style=width:384px></img', '<br><img src=stimuli/r_b_1.jpg style=width:384px></img', '<br><img src=stimuli/r_b_2.jpg style=width:384px></img', '<br><img src=stimuli/r_b_3.jpg style=width:384px></img']",1,,,,0,,0.0-25.0,[0],<br><img src=stimuli/r_b_2.jpg style=width:384px></img,5624,2,,hr_hb_c,440237,surprise_quiz,59,survey-multi-choice,
1137,1_cube_black,,0,,,1,False,Yes,True,,2,0.0-5.0-0.0,,No,3513,,stimuli/lb_hb_c_first.jpg,,46580,prediction_trial,7,image-button-response,
1137,1_cube_black,,1,,,1,True,No,False,,1,0.0-6.0-0.0,,No,3040,,stimuli/hr_ly_c_first.jpg,,60523,prediction_trial,10,image-button-response,
1137,1_cube_black,,0,,,1,False,No,False,,0,0.0-7.0-0.0,,Yes,2231,,stimuli/hr_hb_c_first.jpg,,71496,prediction_trial,13,image-button-response,
1137,1_cube_black,,1,,,1,True,Yes,True,,3,0.0-8.0-0.0,,Yes,2595,,stimuli/lb_ly_c_first.jpg,,83130,prediction_trial,16,image-button-response,
1137,1_cube_black,,1,,,1,True,Yes,True,,2,0.0-9.0-0.0,,Yes,2268,,stimuli/lb_hb_c_first.jpg,,96442,prediction_trial,19,image-button-response,
1137,1_cube_black,,0,,,1,False,No,False,,1,0.0-10.0-0.0,,Yes,5241,,stimuli/hr_ly_c_first.jpg,,110814,prediction_trial,22,image-button-response,
1137,1_cube_black,,1,,,1,True,No,False,,0,0.0-11.0-0.0,,No,4968,,stimuli/hr_hb_c_first.jpg,,123826,prediction_trial,25,image-button-response,
1137,1_cube_black,,1,,,1,True,Yes,True,,3,0.0-12.0-0.0,,Yes,1476,,stimuli/lb_ly_c_first.jpg,,138416,prediction_trial,28,image-button-response,
1137,1_cube_black,,1,,,1,True,No,False,,0,0.0-13.0-0.0,,No,1495,,stimuli/hr_hb_c_first.jpg,,149534,prediction_trial,31,image-button-response,
1137,1_cube_black,,1,,,1,True,Yes,True,,2,0.0-14.0-0.0,,Yes,3648,,stimuli/lb_hb_c_first.jpg,,162686,prediction_trial,34,image-button-response,
1137,1_cube_black,,1,,,1,True,Yes,True,,3,0.0-15.0-0.0,,Yes,1487,,stimuli/lb_ly_c_first.jpg,,173037,prediction_trial,37,image-button-response,
1137,1_cube_black,,1,,,1,True,No,False,,0,0.0-16.0-0.0,,No,1200,,stimuli/hr_hb_c_first.jpg,,188060,prediction_trial,40,image-button-response,
1137,1_cube_black,,1,,,1,True,No,False,,1,0.0-17.0-0.0,,No,1533,,stimuli/hr_ly_c_first.jpg,,197326,prediction_trial,43,image-button-response,
1137,1_cube_black,,1,,,1,True,Yes,True,,2,0.0-18.0-0.0,,Yes,1489,,stimuli/lb_hb_c_first.jpg,,207176,prediction_trial,46,image-button-response,
1137,1_cube_black,,1,,,1,True,Yes,True,,3,0.0-19.0-0.0,,Yes,1352,,stimuli/lb_ly_c_first.jpg,,218837,prediction_trial,49,image-button-response,
1137,1_cube_black,,1,,,1,True,No,False,,1,0.0-20.0-0.0,,No,1759,,stimuli/hr_ly_c_first.jpg,,232380,prediction_trial,52,image-button-response,
1137,1_cube_black,True,,True,"['<br><img src=stimuli/r_b_0.jpg style=width:384px></img', '<br><img src=stimuli/r_b_1.jpg style=width:384px></img', '<br><img src=stimuli/r_b_2.jpg style=width:384px></img', '<br><img src=stimuli/r_b_3.jpg style=width:384px></img']",1,,,,0,,0.0-22.0,[0],<br><img src=stimuli/r_b_0.jpg style=width:384px></img,10785,0,,hr_hb_c,265260,surprise_quiz,56,survey-multi-choice,
1137,1_cube_black,True,,True,"['<br><img src=stimuli/b_y_0.jpg style=width:384px></img', '<br><img src=stimuli/b_y_1.jpg style=width:384px></img', '<br><img src=stimuli/b_y_2.jpg style=width:384px></img', '<br><img src=stimuli/b_y_3.jpg style=width:384px></img']",1,,,,3,,0.0-23.0,[0],<br><img src=stimuli/b_y_3.jpg style=width:384px></img,9174,3,,lb_ly_c,274435,surprise_quiz,57,survey-multi-choice,
1137,1_cube_black,True,,True,"['<br><img src=stimuli/r_y_0.jpg style=width:384px></img', '<br><img src=stimuli/r_y_1.jpg style=width:384px></img', '<br><img src=stimuli/r_y_2.jpg style=width:384px></img', '<br><img src=stimuli/r_y_3.jpg style=width:384px></img']",1,,,,1,,0.0-24.0,[0],<br><img src=stimuli/r_y_1.jpg style=width:384px></img,5510,1,,hr_ly_c,279947,surprise_quiz,58,survey-multi-choice,
1137,1_cube_black,True,,True,"['<br><img src=stimuli/b_b_0.jpg style=width:384px></img', '<br><img src=stimuli/b_b_1.jpg style=width:384px></img', '<br><img src=stimuli/b_b_2.jpg style=width:384px></img', '<br><img src=stimuli/b_b_3.jpg style=width:384px></img']",1,,,,2,,0.0-25.0,[0],<br><img src=stimuli/b_b_2.jpg style=width:384px></img,5494,2,,lb_hb_c,285444,surprise_quiz,59,survey-multi-choice,
1176,1_cube_black,,0,,,1,False,Yes,True,,2,0.0-5.0-0.0,,No,3836,,stimuli/lb_hb_c_first.jpg,,41337,prediction_trial,7,image-button-response,
1176,1_cube_black,,1,,,1,True,No,False,,0,0.0-6.0-0.0,,No,1119,,stimuli/hr_hb_c_first.jpg,,51701,prediction_trial,10,image-button-response,
1176,1_cube_black,,1,,,1,True,No,False,,1,0.0-7.0-0.0,,No,1526,,stimuli/hr_ly_c_first.jpg,,60745,prediction_trial,13,image-button-response,
1176,1_cube_black,,1,,,1,True,Yes,True,,3,0.0-8.0-0.0,,Yes,654,,stimuli/lb_ly_c_first.jpg,,69693,prediction_trial,16,image-button-response,
1176,1_cube_black,,0,,,1,False,No,False,,0,0.0-9.0-0.0,,Yes,646,,stimuli/hr_hb_c_first.jpg,,79496,prediction_trial,19,image-button-response,
1176,1_cube_black,,1,,,1,True,Yes,True,,3,0.0-10.0-0.0,,Yes,711,,stimuli/lb_ly_c_first.jpg,,89308,prediction_trial,22,image-button-response,
1176,1_cube_black,,1,,,1,True,Yes,True,,2,0.0-11.0-0.0,,Yes,655,,stimuli/lb_hb_c_first.jpg,,98976,prediction_trial,25,image-button-response,
1176,1_cube_black,,0,,,1,False,Yes,True,,3,0.0-12.0-0.0,,No,574,,stimuli/lb_ly_c_first.jpg,,108300,prediction_trial,28,image-button-response,
1176,1_cube_black,,1,,,1,True,No,False,,1,0.0-13.0-0.0,,No,487,,stimuli/hr_ly_c_first.jpg,,117744,prediction_trial,31,image-button-response,
1176,1_cube_black,,0,,,1,False,No,False,,0,0.0-14.0-0.0,,Yes,623,,stimuli/hr_hb_c_first.jpg,,126292,prediction_trial,34,image-button-response,
1176,1_cube_black,,0,,,1,False,No,False,,1,0.0-15.0-0.0,,Yes,502,,stimuli/hr_ly_c_first.jpg,,133953,prediction_trial,37,image-button-response,
1176,1_cube_black,,0,,,1,False,No,False,,0,0.0-16.0-0.0,,Yes,558,,stimuli/hr_hb_c_first.jpg,,142437,prediction_trial,40,image-button-response,
1176,1_cube_black,,0,,,1,False,No,False,,1,0.0-17.0-0.0,,Yes,471,,stimuli/hr_ly_c_first.jpg,,150961,prediction_trial,43,image-button-response,
1176,1_cube_black,,1,,,1,True,Yes,True,,2,0.0-18.0-0.0,,Yes,1014,,stimuli/lb_hb_c_first.jpg,,159924,prediction_trial,46,image-button-response,
1176,1_cube_black,,0,,,1,False,Yes,True,,3,0.0-19.0-0.0,,No,5317,,stimuli/lb_ly_c_first.jpg,,174167,prediction_trial,49,image-button-response,
1176,1_cube_black,,1,,,1,True,Yes,True,,2,0.0-20.0-0.0,,Yes,1429,,stimuli/lb_hb_c_first.jpg,,184978,prediction_trial,52,image-button-response,
1176,1_cube_black,False,,True,"['<br><img src=stimuli/b_y_0.jpg style=width:273.2px></img', '<br><img src=stimuli/b_y_1.jpg style=width:273.2px></img', '<br><img src=stimuli/b_y_2.jpg style=width:273.2px></img', '<br><img src=stimuli/b_y_3.jpg style=width:273.2px></img']",1,,,,3,,0.0-22.0,[0],<br><img src=stimuli/b_y_2.jpg style=width:273.2px></img,8010,2,,lb_ly_c,203587,surprise_quiz,56,survey-multi-choice,
1176,1_cube_black,False,,True,"['<br><img src=stimuli/r_y_0.jpg style=width:273.2px></img', '<br><img src=stimuli/r_y_1.jpg style=width:273.2px></img', '<br><img src=stimuli/r_y_2.jpg style=width:273.2px></img', '<br><img src=stimuli/r_y_3.jpg style=width:273.2px></img']",1,,,,1,,0.0-23.0,[0],<br><img src=stimuli/r_y_0.jpg style=width:273.2px></img,6872,0,,hr_ly_c,210463,surprise_quiz,57,survey-multi-choice,
1176,1_cube_black,True,,True,"['<br><img src=stimuli/b_b_0.jpg style=width:273.2px></img', '<br><img src=stimuli/b_b_1.jpg style=width:273.2px></img', '<br><img src=stimuli/b_b_2.jpg style=width:273.2px></img', '<br><img src=stimuli/b_b_3.jpg style=width:273.2px></img']",1,,,,2,,0.0-24.0,[0],<br><img src=stimuli/b_b_2.jpg style=width:273.2px></img,3897,2,,lb_hb_c,214365,surprise_quiz,58,survey-multi-choice,
1176,1_cube_black,False,,True,"['<br><img src=stimuli/r_b_0.jpg style=width:273.2px></img', '<br><img src=stimuli/r_b_1.jpg style=width:273.2px></img', '<br><img src=stimuli/r_b_2.jpg style=width:273.2px></img', '<br><img src=stimuli/r_b_3.jpg style=width:273.2px></img']",1,,,,0,,0.0-25.0,[0],<br><img src=stimuli/r_b_1.jpg style=width:273.2px></img,2930,1,,hr_hb_c,217300,surprise_quiz,59,survey-multi-choice,
1119,1_cube_black,,0,,,1,False,Yes,True,,3,0.0-5.0-0.0,,No,2637,,stimuli/lb_ly_c_first.jpg,,61023,prediction_trial,7,image-button-response,
1119,1_cube_black,,1,,,1,True,Yes,True,,2,0.0-6.0-0.0,,Yes,4154,,stimuli/lb_hb_c_first.jpg,,75135,prediction_trial,10,image-button-response,
1119,1_cube_black,,1,,,1,True,No,False,,0,0.0-7.0-0.0,,No,1451,,stimuli/hr_hb_c_first.jpg,,85100,prediction_trial,13,image-button-response,
1119,1_cube_black,,1,,,1,True,No,False,,1,0.0-8.0-0.0,,No,1780,,stimuli/hr_ly_c_first.jpg,,94178,prediction_trial,16,image-button-response,
1119,1_cube_black,,0,,,1,False,No,False,,0,0.0-9.0-0.0,,Yes,1102,,stimuli/hr_hb_c_first.jpg,,103140,prediction_trial,19,image-button-response,
1119,1_cube_black,,1,,,1,True,Yes,True,,2,0.0-10.0-0.0,,Yes,1607,,stimuli/lb_hb_c_first.jpg,,111878,prediction_trial,22,image-button-response,
1119,1_cube_black,,1,,,1,True,No,False,,1,0.0-11.0-0.0,,No,1551,,stimuli/hr_ly_c_first.jpg,,122020,prediction_trial,25,image-button-response,
1119,1_cube_black,,1,,,1,True,Yes,True,,3,0.0-12.0-0.0,,Yes,877,,stimuli/lb_ly_c_first.jpg,,130725,prediction_trial,28,image-button-response,
1119,1_cube_black,,1,,,1,True,Yes,True,,2,0.0-13.0-0.0,,Yes,1383,,stimuli/lb_hb_c_first.jpg,,141146,prediction_trial,31,image-button-response,
1119,1_cube_black,,1,,,1,True,No,False,,1,0.0-14.0-0.0,,No,1147,,stimuli/hr_ly_c_first.jpg,,151068,prediction_trial,34,image-button-response,
1119,1_cube_black,,1,,,1,True,Yes,True,,3,0.0-15.0-0.0,,Yes,911,,stimuli/lb_ly_c_first.jpg,,159754,prediction_trial,37,image-button-response,
1119,1_cube_black,,1,,,1,True,Yes,True,,2,0.0-16.0-0.0,,Yes,1063,,stimuli/lb_hb_c_first.jpg,,169868,prediction_trial,40,image-button-response,
1119,1_cube_black,,1,,,1,True,Yes,True,,3,0.0-17.0-0.0,,Yes,891,,stimuli/lb_ly_c_first.jpg,,180160,prediction_trial,43,image-button-response,
1119,1_cube_black,,1,,,1,True,No,False,,0,0.0-18.0-0.0,,No,1219,,stimuli/hr_hb_c_first.jpg,,190162,prediction_trial,46,image-button-response,
1119,1_cube_black,,1,,,1,True,No,False,,1,0.0-19.0-0.0,,No,891,,stimuli/hr_ly_c_first.jpg,,198480,prediction_trial,49,image-button-response,
1119,1_cube_black,,1,,,1,True,No,False,,0,0.0-20.0-0.0,,No,887,,stimuli/hr_hb_c_first.jpg,,207242,prediction_trial,52,image-button-response,
1119,1_cube_black,True,,True,"['<br><img src=stimuli/r_y_0.jpg style=width:384px></img', '<br><img src=stimuli/r_y_1.jpg style=width:384px></img', '<br><img src=stimuli/r_y_2.jpg style=width:384px></img', '<br><img src=stimuli/r_y_3.jpg style=width:384px></img']",1,,,,1,,0.0-22.0,[0],<br><img src=stimuli/r_y_1.jpg style=width:384px></img,6890,1,,hr_ly_c,225727,surprise_quiz,56,survey-multi-choice,
1119,1_cube_black,True,,True,"['<br><img src=stimuli/r_b_0.jpg style=width:384px></img', '<br><img src=stimuli/r_b_1.jpg style=width:384px></img', '<br><img src=stimuli/r_b_2.jpg style=width:384px></img', '<br><img src=stimuli/r_b_3.jpg style=width:384px></img']",1,,,,0,,0.0-23.0,[0],<br><img src=stimuli/r_b_0.jpg style=width:384px></img,2422,0,,hr_hb_c,228152,surprise_quiz,57,survey-multi-choice,
1119,1_cube_black,False,,True,"['<br><img src=stimuli/b_b_0.jpg style=width:384px></img', '<br><img src=stimuli/b_b_1.jpg style=width:384px></img', '<br><img src=stimuli/b_b_2.jpg style=width:384px></img', '<br><img src=stimuli/b_b_3.jpg style=width:384px></img']",1,,,,2,,0.0-24.0,[0],<br><img src=stimuli/b_b_3.jpg style=width:384px></img,4424,3,,lb_hb_c,232580,surprise_quiz,58,survey-multi-choice,
1119,1_cube_black,False,,True,"['<br><img src=stimuli/b_y_0.jpg style=width:384px></img', '<br><img src=stimuli/b_y_1.jpg style=width:384px></img', '<br><img src=stimuli/b_y_2.jpg style=width:384px></img', '<br><img src=stimuli/b_y_3.jpg style=width:384px></img']",1,,,,3,,0.0-25.0,[0],<br><img src=stimuli/b_y_2.jpg style=width:384px></img,1182,2,,lb_ly_c,233764,surprise_quiz,59,survey-multi-choice,
1107,1_cube_black,,0,,,1,False,No,False,,1,0.0-5.0-0.0,,Yes,4278,,stimuli/hr_ly_c_first.jpg,,131658,prediction_trial,7,image-button-response,
1107,1_cube_black,,1,,,1,True,No,False,,0,0.0-6.0-0.0,,No,3175,,stimuli/hr_hb_c_first.jpg,,144084,prediction_trial,10,image-button-response,
1107,1_cube_black,,1,,,1,True,Yes,True,,2,0.0-7.0-0.0,,Yes,3082,,stimuli/lb_hb_c_first.jpg,,155784,prediction_trial,13,image-button-response,
1107,1_cube_black,,0,,,1,False,Yes,True,,3,0.0-8.0-0.0,,No,1766,,stimuli/lb_ly_c_first.jpg,,167359,prediction_trial,16,image-button-response,
1107,1_cube_black,,0,,,1,False,No,False,,1,0.0-9.0-0.0,,Yes,2279,,stimuli/hr_ly_c_first.jpg,,179065,prediction_trial,19,image-button-response,
1107,1_cube_black,,1,,,1,True,Yes,True,,3,0.0-10.0-0.0,,Yes,1126,,stimuli/lb_ly_c_first.jpg,,188566,prediction_trial,22,image-button-response,
1107,1_cube_black,,0,,,1,False,Yes,True,,2,0.0-11.0-0.0,,No,1714,,stimuli/lb_hb_c_first.jpg,,199920,prediction_trial,25,image-button-response,
1107,1_cube_black,,1,,,1,True,No,False,,0,0.0-12.0-0.0,,No,1336,,stimuli/hr_hb_c_first.jpg,,211520,prediction_trial,28,image-button-response,
1107,1_cube_black,,1,,,1,True,Yes,True,,3,0.0-13.0-0.0,,Yes,1088,,stimuli/lb_ly_c_first.jpg,,220492,prediction_trial,31,image-button-response,
1107,1_cube_black,,0,,,1,False,No,False,,1,0.0-14.0-0.0,,Yes,1181,,stimuli/hr_ly_c_first.jpg,,231789,prediction_trial,34,image-button-response,
1107,1_cube_black,,1,,,1,True,Yes,True,,2,0.0-15.0-0.0,,Yes,1249,,stimuli/lb_hb_c_first.jpg,,241231,prediction_trial,37,image-button-response,
1107,1_cube_black,,0,,,1,False,Yes,True,,3,0.0-16.0-0.0,,No,881,,stimuli/lb_ly_c_first.jpg,,251471,prediction_trial,40,image-button-response,
1107,1_cube_black,,0,,,1,False,No,False,,1,0.0-17.0-0.0,,Yes,2399,,stimuli/hr_ly_c_first.jpg,,264069,prediction_trial,43,image-button-response,
1107,1_cube_black,,0,,,1,False,No,False,,0,0.0-18.0-0.0,,Yes,1482,,stimuli/hr_hb_c_first.jpg,,273913,prediction_trial,46,image-button-response,
1107,1_cube_black,,1,,,1,True,Yes,True,,2,0.0-19.0-0.0,,Yes,893,,stimuli/lb_hb_c_first.jpg,,282406,prediction_trial,49,image-button-response,
1107,1_cube_black,,1,,,1,True,No,False,,0,0.0-20.0-0.0,,No,1585,,stimuli/hr_hb_c_first.jpg,,293094,prediction_trial,52,image-button-response,
1107,1_cube_black,False,,False,"['<br><img src=stimuli/b_b_0.jpg style=width:307.2px></img', '<br><img src=stimuli/b_b_1.jpg style=width:307.2px></img', '<br><img src=stimuli/b_b_2.jpg style=width:307.2px></img', '<br><img src=stimuli/b_b_3.jpg style=width:307.2px></img']",1,,,,2,,0.0-22.0,[0],<br><img src=stimuli/b_b_1.jpg style=width:307.2px></img,13271,1,,lb_hb_c,318008,surprise_quiz,56,survey-multi-choice,
1107,1_cube_black,False,,True,"['<br><img src=stimuli/b_y_0.jpg style=width:307.2px></img', '<br><img src=stimuli/b_y_1.jpg style=width:307.2px></img', '<br><img src=stimuli/b_y_2.jpg style=width:307.2px></img', '<br><img src=stimuli/b_y_3.jpg style=width:307.2px></img']",1,,,,3,,0.0-23.0,[0],<br><img src=stimuli/b_y_2.jpg style=width:307.2px></img,6037,2,,lb_ly_c,324049,surprise_quiz,57,survey-multi-choice,
1107,1_cube_black,False,,False,"['<br><img src=stimuli/r_y_0.jpg style=width:307.2px></img', '<br><img src=stimuli/r_y_1.jpg style=width:307.2px></img', '<br><img src=stimuli/r_y_2.jpg style=width:307.2px></img', '<br><img src=stimuli/r_y_3.jpg style=width:307.2px></img']",1,,,,1,,0.0-24.0,[0],<br><img src=stimuli/r_y_3.jpg style=width:307.2px></img,4356,3,,hr_ly_c,328409,surprise_quiz,58,survey-multi-choice,
1107,1_cube_black,True,,True,"['<br><img src=stimuli/r_b_0.jpg style=width:307.2px></img', '<br><img src=stimuli/r_b_1.jpg style=width:307.2px></img', '<br><img src=stimuli/r_b_2.jpg style=width:307.2px></img', '<br><img src=stimuli/r_b_3.jpg style=width:307.2px></img']",1,,,,0,,0.0-25.0,[0],<br><img src=stimuli/r_b_0.jpg style=width:307.2px></img,5309,0,,hr_hb_c,333722,surprise_quiz,59,survey-multi-choice,
1193,1_cube_black,,0,,,1,False,Yes,True,,3,0.0-5.0-0.0,,No,3256,,stimuli/lb_ly_c_first.jpg,,56342,prediction_trial,7,image-button-response,
1193,1_cube_black,,0,,,1,False,No,False,,1,0.0-6.0-0.0,,Yes,1843,,stimuli/hr_ly_c_first.jpg,,67653,prediction_trial,10,image-button-response,
1193,1_cube_black,,1,,,1,True,Yes,True,,3,0.0-7.0-0.0,,Yes,1478,,stimuli/lb_ly_c_first.jpg,,77371,prediction_trial,13,image-button-response,
1193,1_cube_black,,1,,,1,True,No,False,,1,0.0-8.0-0.0,,No,1160,,stimuli/hr_ly_c_first.jpg,,88018,prediction_trial,16,image-button-response,
1193,1_cube_black,,1,,,1,True,Yes,True,,3,0.0-9.0-0.0,,Yes,1546,,stimuli/lb_ly_c_first.jpg,,98001,prediction_trial,19,image-button-response,
1193,1_cube_black,,1,,,1,True,Yes,True,,2,0.0-10.0-0.0,,Yes,1682,,stimuli/lb_hb_c_first.jpg,,108812,prediction_trial,22,image-button-response,
1193,1_cube_black,,1,,,1,True,No,False,,0,0.0-11.0-0.0,,No,1202,,stimuli/hr_hb_c_first.jpg,,118616,prediction_trial,25,image-button-response,
1193,1_cube_black,,1,,,1,True,No,False,,1,0.0-12.0-0.0,,No,1127,,stimuli/hr_ly_c_first.jpg,,127002,prediction_trial,28,image-button-response,
1193,1_cube_black,,1,,,1,True,Yes,True,,2,0.0-13.0-0.0,,Yes,1193,,stimuli/lb_hb_c_first.jpg,,136105,prediction_trial,31,image-button-response,
1193,1_cube_black,,1,,,1,True,No,False,,0,0.0-14.0-0.0,,No,1046,,stimuli/hr_hb_c_first.jpg,,145930,prediction_trial,34,image-button-response,
1193,1_cube_black,,1,,,1,True,No,False,,1,0.0-15.0-0.0,,No,1312,,stimuli/hr_ly_c_first.jpg,,154566,prediction_trial,37,image-button-response,
1193,1_cube_black,,1,,,1,True,Yes,True,,2,0.0-16.0-0.0,,Yes,1052,,stimuli/lb_hb_c_first.jpg,,163580,prediction_trial,40,image-button-response,
1193,1_cube_black,,1,,,1,True,No,False,,0,0.0-17.0-0.0,,No,1105,,stimuli/hr_hb_c_first.jpg,,173307,prediction_trial,43,image-button-response,
1193,1_cube_black,,1,,,1,True,Yes,True,,2,0.0-18.0-0.0,,Yes,1098,,stimuli/lb_hb_c_first.jpg,,181600,prediction_trial,46,image-button-response,
1193,1_cube_black,,1,,,1,True,Yes,True,,3,0.0-19.0-0.0,,Yes,1109,,stimuli/lb_ly_c_first.jpg,,191314,prediction_trial,49,image-button-response,
1193,1_cube_black,,1,,,1,True,No,False,,0,0.0-20.0-0.0,,No,1087,,stimuli/hr_hb_c_first.jpg,,201322,prediction_trial,52,image-button-response,
1193,1_cube_black,False,,True,"['<br><img src=stimuli/b_y_0.jpg style=width:307.2px></img', '<br><img src=stimuli/b_y_1.jpg style=width:307.2px></img', '<br><img src=stimuli/b_y_2.jpg style=width:307.2px></img', '<br><img src=stimuli/b_y_3.jpg style=width:307.2px></img']",1,,,,3,,0.0-22.0,[0],<br><img src=stimuli/b_y_2.jpg style=width:307.2px></img,9050,2,,lb_ly_c,221254,surprise_quiz,56,survey-multi-choice,
1193,1_cube_black,False,,True,"['<br><img src=stimuli/r_b_0.jpg style=width:307.2px></img', '<br><img src=stimuli/r_b_1.jpg style=width:307.2px></img', '<br><img src=stimuli/r_b_2.jpg style=width:307.2px></img', '<br><img src=stimuli/r_b_3.jpg style=width:307.2px></img']",1,,,,0,,0.0-23.0,[0],<br><img src=stimuli/r_b_1.jpg style=width:307.2px></img,4995,1,,hr_hb_c,226253,surprise_quiz,57,survey-multi-choice,
1193,1_cube_black,False,,True,"['<br><img src=stimuli/b_b_0.jpg style=width:307.2px></img', '<br><img src=stimuli/b_b_1.jpg style=width:307.2px></img', '<br><img src=stimuli/b_b_2.jpg style=width:307.2px></img', '<br><img src=stimuli/b_b_3.jpg style=width:307.2px></img']",1,,,,2,,0.0-24.0,[0],<br><img src=stimuli/b_b_3.jpg style=width:307.2px></img,3201,3,,lb_hb_c,229458,surprise_quiz,58,survey-multi-choice,
1193,1_cube_black,True,,True,"['<br><img src=stimuli/r_y_0.jpg style=width:307.2px></img', '<br><img src=stimuli/r_y_1.jpg style=width:307.2px></img', '<br><img src=stimuli/r_y_2.jpg style=width:307.2px></img', '<br><img src=stimuli/r_y_3.jpg style=width:307.2px></img']",1,,,,1,,0.0-25.0,[0],<br><img src=stimuli/r_y_1.jpg style=width:307.2px></img,3327,1,,hr_ly_c,232788,surprise_quiz,59,survey-multi-choice,
1206,1_cube_black,,1,,,1,True,No,False,,1,0.0-5.0-0.0,,No,13137,,stimuli/hr_ly_c_first.jpg,,77237,prediction_trial,7,image-button-response,
1206,1_cube_black,,1,,,1,True,Yes,True,,3,0.0-6.0-0.0,,Yes,2205,,stimuli/lb_ly_c_first.jpg,,88746,prediction_trial,10,image-button-response,
1206,1_cube_black,,0,,,1,False,No,False,,0,0.0-7.0-0.0,,Yes,5055,,stimuli/hr_hb_c_first.jpg,,103269,prediction_trial,13,image-button-response,
1206,1_cube_black,,1,,,1,True,Yes,True,,3,0.0-8.0-0.0,,Yes,4977,,stimuli/lb_ly_c_first.jpg,,115922,prediction_trial,16,image-button-response,
1206,1_cube_black,,1,,,1,True,No,False,,1,0.0-9.0-0.0,,No,2736,,stimuli/hr_ly_c_first.jpg,,128568,prediction_trial,19,image-button-response,
1206,1_cube_black,,1,,,1,True,No,False,,0,0.0-10.0-0.0,,No,1465,,stimuli/hr_hb_c_first.jpg,,138356,prediction_trial,22,image-button-response,
1206,1_cube_black,,1,,,1,True,No,False,,1,0.0-11.0-0.0,,No,4527,,stimuli/hr_ly_c_first.jpg,,150518,prediction_trial,25,image-button-response,
1206,1_cube_black,,1,,,1,True,No,False,,0,0.0-12.0-0.0,,No,1725,,stimuli/hr_hb_c_first.jpg,,160586,prediction_trial,28,image-button-response,
1206,1_cube_black,,0,,,1,False,Yes,True,,2,0.0-13.0-0.0,,No,3953,,stimuli/lb_hb_c_first.jpg,,171912,prediction_trial,31,image-button-response,
1206,1_cube_black,,1,,,1,True,Yes,True,,3,0.0-14.0-0.0,,Yes,1645,,stimuli/lb_ly_c_first.jpg,,182737,prediction_trial,34,image-button-response,
1206,1_cube_black,,1,,,1,True,Yes,True,,2,0.0-15.0-0.0,,Yes,1466,,stimuli/lb_hb_c_first.jpg,,193187,prediction_trial,37,image-button-response,
1206,1_cube_black,,1,,,1,True,Yes,True,,3,0.0-16.0-0.0,,Yes,1223,,stimuli/lb_ly_c_first.jpg,,203362,prediction_trial,40,image-button-response,
1206,1_cube_black,,1,,,1,True,No,False,,1,0.0-17.0-0.0,,No,2658,,stimuli/hr_ly_c_first.jpg,,215020,prediction_trial,43,image-button-response,
1206,1_cube_black,,1,,,1,True,Yes,True,,2,0.0-18.0-0.0,,Yes,3023,,stimuli/lb_hb_c_first.jpg,,226194,prediction_trial,46,image-button-response,
1206,1_cube_black,,1,,,1,True,No,False,,0,0.0-19.0-0.0,,No,2988,,stimuli/hr_hb_c_first.jpg,,238317,prediction_trial,49,image-button-response,
1206,1_cube_black,,1,,,1,True,Yes,True,,2,0.0-20.0-0.0,,Yes,2491,,stimuli/lb_hb_c_first.jpg,,248103,prediction_trial,52,image-button-response,
1206,1_cube_black,True,,True,"['<br><img src=stimuli/b_y_0.jpg style=width:273.2px></img', '<br><img src=stimuli/b_y_1.jpg style=width:273.2px></img', '<br><img src=stimuli/b_y_2.jpg style=width:273.2px></img', '<br><img src=stimuli/b_y_3.jpg style=width:273.2px></img']",1,,,,3,,0.0-22.0,[0],<br><img src=stimuli/b_y_3.jpg style=width:273.2px></img,8344,3,,lb_ly_c,270569,surprise_quiz,56,survey-multi-choice,
1206,1_cube_black,True,,True,"['<br><img src=stimuli/r_y_0.jpg style=width:273.2px></img', '<br><img src=stimuli/r_y_1.jpg style=width:273.2px></img', '<br><img src=stimuli/r_y_2.jpg style=width:273.2px></img', '<br><img src=stimuli/r_y_3.jpg style=width:273.2px></img']",1,,,,1,,0.0-23.0,[0],<br><img src=stimuli/r_y_1.jpg style=width:273.2px></img,6786,1,,hr_ly_c,277357,surprise_quiz,57,survey-multi-choice,
1206,1_cube_black,True,,True,"['<br><img src=stimuli/r_b_0.jpg style=width:273.2px></img', '<br><img src=stimuli/r_b_1.jpg style=width:273.2px></img', '<br><img src=stimuli/r_b_2.jpg style=width:273.2px></img', '<br><img src=stimuli/r_b_3.jpg style=width:273.2px></img']",1,,,,0,,0.0-24.0,[0],<br><img src=stimuli/r_b_0.jpg style=width:273.2px></img,3360,0,,hr_hb_c,280719,surprise_quiz,58,survey-multi-choice,
1206,1_cube_black,True,,True,"['<br><img src=stimuli/b_b_0.jpg style=width:273.2px></img', '<br><img src=stimuli/b_b_1.jpg style=width:273.2px></img', '<br><img src=stimuli/b_b_2.jpg style=width:273.2px></img', '<br><img src=stimuli/b_b_3.jpg style=width:273.2px></img']",1,,,,2,,0.0-25.0,[0],<br><img src=stimuli/b_b_2.jpg style=width:273.2px></img,3498,2,,lb_hb_c,284219,surprise_quiz,59,survey-multi-choice,
1157,1_cube_black,,0,,,1,False,No,False,,0,0.0-5.0-0.0,,Yes,6598,,stimuli/hr_hb_c_first.jpg,,36503,prediction_trial,7,image-button-response,
1157,1_cube_black,,1,,,1,True,Yes,True,,2,0.0-6.0-0.0,,Yes,2262,,stimuli/lb_hb_c_first.jpg,,47560,prediction_trial,10,image-button-response,
1157,1_cube_black,,1,,,1,True,Yes,True,,3,0.0-7.0-0.0,,Yes,4088,,stimuli/lb_ly_c_first.jpg,,62113,prediction_trial,13,image-button-response,
1157,1_cube_black,,1,,,1,True,No,False,,0,0.0-8.0-0.0,,No,1926,,stimuli/hr_hb_c_first.jpg,,73130,prediction_trial,16,image-button-response,
1157,1_cube_black,,0,,,1,False,No,False,,1,0.0-9.0-0.0,,Yes,5765,,stimuli/hr_ly_c_first.jpg,,86700,prediction_trial,19,image-button-response,
1157,1_cube_black,,1,,,1,True,Yes,True,,2,0.0-10.0-0.0,,Yes,1752,,stimuli/lb_hb_c_first.jpg,,96808,prediction_trial,22,image-button-response,
1157,1_cube_black,,1,,,1,True,Yes,True,,3,0.0-11.0-0.0,,Yes,1719,,stimuli/lb_ly_c_first.jpg,,107532,prediction_trial,25,image-button-response,
1157,1_cube_black,,1,,,1,True,No,False,,1,0.0-12.0-0.0,,No,892,,stimuli/hr_ly_c_first.jpg,,117807,prediction_trial,28,image-button-response,
1157,1_cube_black,,1,,,1,True,Yes,True,,2,0.0-13.0-0.0,,Yes,1003,,stimuli/lb_hb_c_first.jpg,,127007,prediction_trial,31,image-button-response,
1157,1_cube_black,,1,,,1,True,Yes,True,,3,0.0-14.0-0.0,,Yes,1233,,stimuli/lb_ly_c_first.jpg,,137491,prediction_trial,34,image-button-response,
1157,1_cube_black,,1,,,1,True,No,False,,1,0.0-15.0-0.0,,No,893,,stimuli/hr_ly_c_first.jpg,,147467,prediction_trial,37,image-button-response,
1157,1_cube_black,,1,,,1,True,No,False,,0,0.0-16.0-0.0,,No,1242,,stimuli/hr_hb_c_first.jpg,,157080,prediction_trial,40,image-button-response,
1157,1_cube_black,,1,,,1,True,Yes,True,,2,0.0-17.0-0.0,,Yes,1234,,stimuli/lb_hb_c_first.jpg,,165787,prediction_trial,43,image-button-response,
