workerid,proliferate.condition,accuracy,accuracy_bool,accuracy_finish_line,age,bonus,choices,condition,correct,correct_response,crosses,end_posision,end_position,ethnicity,failed_audio,failed_images,failed_video,feedback,gender,internal_node_id,overall_accuracy,question_order,race,response,rt,selected_position,stimulus,success,surprise_setup,time_elapsed,timeout,trial,trial_index,trial_type,view_history,error
1111,1_cube_black,,,,,,,1,,,,,,,[],[],[],,,0.0-0.0,,,,,,,,True,,145,False,,0,preload,,
1111,1_cube_black,,,,,,,1,,,,,,,,,,,,0.0-1.0,,,,,,,,True,,6490,,,1,fullscreen,,
1111,1_cube_black,,,,,,,1,,,,,,,,,,,,0.0-2.0,,,,0,4676,,"<p><b>Consent Form</b></p> <div style=""text-align:left;background-color:lightblue; padding:20px; max-width:900px;""><p><b>Description:</b> Welcome! You are invited to participate in a research study in cognitive psychology. You will be asked to perform various tasks on a computer which may include: looking at images or videos, listening to sounds, reading scenarios, or playing games. You may be asked a number of different questions about making judgments and intepreting people's actions. All information collected will remain confidential. </p> <p> <b>Risks and benefits:</b> Risks involved in this study are the same as those normally associated with using a computer (e.g., mild eye/arm strain). If you have any pre- existing conditions that might make reading and completing a computer-based survey strenuous for you, you should probably elect to not participate in this study. If at any time during the study you feel unable to participate because you are experiencing strain, you may end your participation without penalty. We cannot and do not guarantee or promise that you will receive any benefits from this study. Your decision whether or not to participate in this study will not affect your employment, medical care, and/or grades in school. </p><p><b>Time involvement:</b> Your participation in this experiment will take  5 minutes. </p><p><b> Payment:</b> If recruitment materials indicate payment (e.g., Prolific or other recruitment), you will receive compensation as indicated. </p><p><b>Subject's rights:</b> If you have read this notice and have decided to participate in this project, please understand your participation is voluntary and you have the right to withdraw your consent or discontinue participation at any time without penalty or loss of benefits to which you are otherwise entitled. You have the right to refuse to answer particular questions. Your individual privacy will be maintained in all published and written data resulting from the study. </p><p><b>Contact information:</b> If you have any questions, concerns or complaints about this research study, its procedures, or risks and benefits, you should ask the Protocol Director, (Professor Tobias Gerstenberg, Phone: (650) 725-2431; Email: gerstenberg@stanford.edu). </p><p><b>Independent contact:</b> If you are not satisfied with how this study is being conducted, or if you have any concerns, complaints, or general questions about the research or your rights as a participant, please contact the Stanford Institutional Review Board (IRB) to speak to someone independent of the research team via email at irb2-manager@lists.stanford.edu, or via phone at (650) 723-2480 or toll free at 1-866-680-2906. You can also write to the Stanford IRB, Stanford University, 3000 El Camino Real, Five Palo Alto Square, 4th Floor, Palo Alto, CA 94306. </p><p>You may want to print a copy of this consent form to keep. By clicking the button below, you acknowledge that you have read the above information, that you are 18 years of age, or older and give your consent to participate in our internet-based study and consent for us to analyze the resulting data. </p> </div><p> Do you agree with the terms of the experiment as explained above? </p>",,,11167,,,2,html-button-response,,
1111,1_cube_black,,,,,,,1,,,,,,,,,,,,0.0-3.0-0.0,,,,,27988,,,,,39155,,instructions_pt1,3,instructions,"[{'page_index': 0, 'viewing_time': 2803}, {'page_index': 1, 'viewing_time': 5048}, {'page_index': 2, 'viewing_time': 3634}, {'page_index': 3, 'viewing_time': 3418}, {'page_index': 4, 'viewing_time': 5438}, {'page_index': 5, 'viewing_time': 2917}, {'page_index': 6, 'viewing_time': 3116}, {'page_index': 7, 'viewing_time': 1614}]",
1111,1_cube_black,True,,,,,,1,,0,,,,,,,,,,0.0-3.0-1.0-0.0,,,,0,4613,,"<p> In this experiment, you will receive a bonus payment proportional to _________.</p>",,,43769,,comprehension_quiz,4,html-button-response,,
1111,1_cube_black,True,,,,,,1,,1,,,,,,,,,,0.0-3.0-1.0-1.0,,,,1,1671,,You will be asked to predict whether objects _________.,,,45442,,comprehension_quiz,5,html-button-response,,
1111,1_cube_black,,,,,,,1,,,,,,,,,,,,0.0-4.0,,,,0,1236,,The experiment will now begin,,,46679,,,6,html-button-response,,
1111,1_cube_black,,1,,,,,1,True,Yes,True,,2,,,,,,,0.0-5.0-0.0,,,,Yes,3240,,stimuli/lb_hb_c_first.jpg,,,49928,,prediction_trial,7,image-button-response,,
1111,1_cube_black,,,,,,,1,True,,,,,,,,,,,0.0-5.0-1.0,,,,,,,['stimuli/lb_hb_c.mp4'],,,58168,,video_trial,8,video-button-response,,
1111,1_cube_black,,,,,,,1,,,,,,,,,,,,0.0-5.0-2.0,,,,0,1508,,stimuli/lb_hb_c_last.jpg,,,59677,,feedback_trial,9,image-button-response,,
1111,1_cube_black,,0,,,,,1,False,No,False,,1,,,,,,,0.0-6.0-0.0,,,,Yes,2646,,stimuli/hr_ly_c_first.jpg,,,62323,,prediction_trial,10,image-button-response,,
1111,1_cube_black,,,,,,,1,False,,,,,,,,,,,0.0-6.0-1.0,,,,,,,['stimuli/hr_ly_c.mp4'],,,69711,,video_trial,11,video-button-response,,
1111,1_cube_black,,,,,,,1,,,,,,,,,,,,0.0-6.0-2.0,,,,0,1832,,stimuli/hr_ly_c_last.jpg,,,71544,,feedback_trial,12,image-button-response,,
1111,1_cube_black,,1,,,,,1,True,Yes,True,,2,,,,,,,0.0-7.0-0.0,,,,Yes,2381,,stimuli/lb_hb_c_first.jpg,,,73926,,prediction_trial,13,image-button-response,,
1111,1_cube_black,,,,,,,1,True,,,,,,,,,,,0.0-7.0-1.0,,,,,,,['stimuli/lb_hb_c.mp4'],,,82004,,video_trial,14,video-button-response,,
1111,1_cube_black,,,,,,,1,,,,,,,,,,,,0.0-7.0-2.0,,,,0,1575,,stimuli/lb_hb_c_last.jpg,,,83580,,feedback_trial,15,image-button-response,,
1111,1_cube_black,,0,,,,,1,False,No,False,,0,,,,,,,0.0-8.0-0.0,,,,Yes,2553,,stimuli/hr_hb_c_first.jpg,,,86134,,prediction_trial,16,image-button-response,,
1111,1_cube_black,,,,,,,1,False,,,,,,,,,,,0.0-8.0-1.0,,,,,,,['stimuli/hr_hb_c.mp4'],,,92765,,video_trial,17,video-button-response,,
1111,1_cube_black,,,,,,,1,,,,,,,,,,,,0.0-8.0-2.0,,,,0,6858,,stimuli/hr_hb_c_last.jpg,,,99624,,feedback_trial,18,image-button-response,,
1111,1_cube_black,,0,,,,,1,False,Yes,True,,3,,,,,,,0.0-9.0-0.0,,,,No,2593,,stimuli/lb_ly_c_first.jpg,,,102218,,prediction_trial,19,image-button-response,,
1111,1_cube_black,,,,,,,1,False,,,,,,,,,,,0.0-9.0-1.0,,,,,,,['stimuli/lb_ly_c.mp4'],,,110522,,video_trial,20,video-button-response,,
1111,1_cube_black,,,,,,,1,,,,,,,,,,,,0.0-9.0-2.0,,,,0,1404,,stimuli/lb_ly_c_last.jpg,,,111927,,feedback_trial,21,image-button-response,,
1111,1_cube_black,,1,,,,,1,True,No,False,,0,,,,,,,0.0-10.0-0.0,,,,No,1897,,stimuli/hr_hb_c_first.jpg,,,113825,,prediction_trial,22,image-button-response,,
1111,1_cube_black,,,,,,,1,True,,,,,,,,,,,0.0-10.0-1.0,,,,,,,['stimuli/hr_hb_c.mp4'],,,120450,,video_trial,23,video-button-response,,
1111,1_cube_black,,,,,,,1,,,,,,,,,,,,0.0-10.0-2.0,,,,0,1124,,stimuli/hr_hb_c_last.jpg,,,121575,,feedback_trial,24,image-button-response,,
1111,1_cube_black,,1,,,,,1,True,Yes,True,,2,,,,,,,0.0-11.0-0.0,,,,Yes,1806,,stimuli/lb_hb_c_first.jpg,,,123382,,prediction_trial,25,image-button-response,,
1111,1_cube_black,,,,,,,1,True,,,,,,,,,,,0.0-11.0-1.0,,,,,,,['stimuli/lb_hb_c.mp4'],,,131478,,video_trial,26,video-button-response,,
1111,1_cube_black,,,,,,,1,,,,,,,,,,,,0.0-11.0-2.0,,,,0,1352,,stimuli/lb_hb_c_last.jpg,,,132830,,feedback_trial,27,image-button-response,,
1111,1_cube_black,,1,,,,,1,True,No,False,,1,,,,,,,0.0-12.0-0.0,,,,No,2973,,stimuli/hr_ly_c_first.jpg,,,135804,,prediction_trial,28,image-button-response,,
1111,1_cube_black,,,,,,,1,True,,,,,,,,,,,0.0-12.0-1.0,,,,,,,['stimuli/hr_ly_c.mp4'],,,143204,,video_trial,29,video-button-response,,
1111,1_cube_black,,,,,,,1,,,,,,,,,,,,0.0-12.0-2.0,,,,0,1543,,stimuli/hr_ly_c_last.jpg,,,144748,,feedback_trial,30,image-button-response,,
1111,1_cube_black,,1,,,,,1,True,Yes,True,,3,,,,,,,0.0-13.0-0.0,,,,Yes,2260,,stimuli/lb_ly_c_first.jpg,,,147008,,prediction_trial,31,image-button-response,,
1111,1_cube_black,,,,,,,1,True,,,,,,,,,,,0.0-13.0-1.0,,,,,,,['stimuli/lb_ly_c.mp4'],,,155314,,video_trial,32,video-button-response,,
1111,1_cube_black,,,,,,,1,,,,,,,,,,,,0.0-13.0-2.0,,,,0,906,,stimuli/lb_ly_c_last.jpg,,,156220,,feedback_trial,33,image-button-response,,
1111,1_cube_black,,1,,,,,1,True,No,False,,1,,,,,,,0.0-14.0-0.0,,,,No,1519,,stimuli/hr_ly_c_first.jpg,,,157740,,prediction_trial,34,image-button-response,,
1111,1_cube_black,,,,,,,1,True,,,,,,,,,,,0.0-14.0-1.0,,,,,,,['stimuli/hr_ly_c.mp4'],,,165126,,video_trial,35,video-button-response,,
1111,1_cube_black,,,,,,,1,,,,,,,,,,,,0.0-14.0-2.0,,,,0,899,,stimuli/hr_ly_c_last.jpg,,,166026,,feedback_trial,36,image-button-response,,
1111,1_cube_black,,1,,,,,1,True,Yes,True,,2,,,,,,,0.0-15.0-0.0,,,,Yes,1676,,stimuli/lb_hb_c_first.jpg,,,167703,,prediction_trial,37,image-button-response,,
1111,1_cube_black,,,,,,,1,True,,,,,,,,,,,0.0-15.0-1.0,,,,,,,['stimuli/lb_hb_c.mp4'],,,175787,,video_trial,38,video-button-response,,
1111,1_cube_black,,,,,,,1,,,,,,,,,,,,0.0-15.0-2.0,,,,0,935,,stimuli/lb_hb_c_last.jpg,,,176723,,feedback_trial,39,image-button-response,,
1111,1_cube_black,,1,,,,,1,True,Yes,True,,3,,,,,,,0.0-16.0-0.0,,,,Yes,2329,,stimuli/lb_ly_c_first.jpg,,,179053,,prediction_trial,40,image-button-response,,
1111,1_cube_black,,,,,,,1,True,,,,,,,,,,,0.0-16.0-1.0,,,,,,,['stimuli/lb_ly_c.mp4'],,,187346,,video_trial,41,video-button-response,,
1111,1_cube_black,,,,,,,1,,,,,,,,,,,,0.0-16.0-2.0,,,,0,1210,,stimuli/lb_ly_c_last.jpg,,,188556,,feedback_trial,42,image-button-response,,
1111,1_cube_black,,1,,,,,1,True,No,False,,0,,,,,,,0.0-17.0-0.0,,,,No,1610,,stimuli/hr_hb_c_first.jpg,,,190167,,prediction_trial,43,image-button-response,,
1111,1_cube_black,,,,,,,1,True,,,,,,,,,,,0.0-17.0-1.0,,,,,,,['stimuli/hr_hb_c.mp4'],,,196791,,video_trial,44,video-button-response,,
1111,1_cube_black,,,,,,,1,,,,,,,,,,,,0.0-17.0-2.0,,,,0,1593,,stimuli/hr_hb_c_last.jpg,,,198385,,feedback_trial,45,image-button-response,,
1111,1_cube_black,,1,,,,,1,True,Yes,True,,3,,,,,,,0.0-18.0-0.0,,,,Yes,1018,,stimuli/lb_ly_c_first.jpg,,,199404,,prediction_trial,46,image-button-response,,
1111,1_cube_black,,,,,,,1,True,,,,,,,,,,,0.0-18.0-1.0,,,,,,,['stimuli/lb_ly_c.mp4'],,,207701,,video_trial,47,video-button-response,,
1111,1_cube_black,,,,,,,1,,,,,,,,,,,,0.0-18.0-2.0,,,,0,1033,,stimuli/lb_ly_c_last.jpg,,,208735,,feedback_trial,48,image-button-response,,
1111,1_cube_black,,1,,,,,1,True,No,False,,0,,,,,,,0.0-19.0-0.0,,,,No,2398,,stimuli/hr_hb_c_first.jpg,,,211134,,prediction_trial,49,image-button-response,,
1111,1_cube_black,,,,,,,1,True,,,,,,,,,,,0.0-19.0-1.0,,,,,,,['stimuli/hr_hb_c.mp4'],,,217763,,video_trial,50,video-button-response,,
1111,1_cube_black,,,,,,,1,,,,,,,,,,,,0.0-19.0-2.0,,,,0,1097,,stimuli/hr_hb_c_last.jpg,,,218860,,feedback_trial,51,image-button-response,,
1111,1_cube_black,,1,,,,,1,True,No,False,,1,,,,,,,0.0-20.0-0.0,,,,No,1683,,stimuli/hr_ly_c_first.jpg,,,220545,,prediction_trial,52,image-button-response,,
1111,1_cube_black,,,,,,,1,True,,,,,,,,,,,0.0-20.0-1.0,,,,,,,['stimuli/hr_ly_c.mp4'],,,227940,,video_trial,53,video-button-response,,
1111,1_cube_black,,,,,,,1,,,,,,,,,,,,0.0-20.0-2.0,,,,0,1200,,stimuli/hr_ly_c_last.jpg,,,229141,,feedback_trial,54,image-button-response,,
1111,1_cube_black,,,,,,,1,,,,,,,,,,,,0.0-21.0,,,,0,3335,," <p> Now we will ask you to make some different predictions.</p> <p>This time, we'll ask you to select one of four images that correctly shows where the block will end up.</p>",,,232477,,surprise_quiz_instructions,55,html-button-response,,
1111,1_cube_black,False,,True,,,"['<br><img src=stimuli/r_b_0.jpg style=width:256px></img', '<br><img src=stimuli/r_b_1.jpg style=width:256px></img', '<br><img src=stimuli/r_b_2.jpg style=width:256px></img', '<br><img src=stimuli/r_b_3.jpg style=width:256px></img']",1,,,,0,,,,,,,,0.0-22.0,,[0],,<br><img src=stimuli/r_b_1.jpg style=width:256px></img,11125,1,,,hr_hb_c,243605,,surprise_quiz,56,survey-multi-choice,,
1111,1_cube_black,True,,True,,,"['<br><img src=stimuli/r_y_0.jpg style=width:256px></img', '<br><img src=stimuli/r_y_1.jpg style=width:256px></img', '<br><img src=stimuli/r_y_2.jpg style=width:256px></img', '<br><img src=stimuli/r_y_3.jpg style=width:256px></img']",1,,,,1,,,,,,,,0.0-23.0,,[0],,<br><img src=stimuli/r_y_1.jpg style=width:256px></img,5176,1,,,hr_ly_c,248783,,surprise_quiz,57,survey-multi-choice,,
1111,1_cube_black,False,,True,,,"['<br><img src=stimuli/b_y_0.jpg style=width:256px></img', '<br><img src=stimuli/b_y_1.jpg style=width:256px></img', '<br><img src=stimuli/b_y_2.jpg style=width:256px></img', '<br><img src=stimuli/b_y_3.jpg style=width:256px></img']",1,,,,3,,,,,,,,0.0-24.0,,[0],,<br><img src=stimuli/b_y_2.jpg style=width:256px></img,5104,2,,,lb_ly_c,253889,,surprise_quiz,58,survey-multi-choice,,
1111,1_cube_black,True,,True,,,"['<br><img src=stimuli/b_b_0.jpg style=width:256px></img', '<br><img src=stimuli/b_b_1.jpg style=width:256px></img', '<br><img src=stimuli/b_b_2.jpg style=width:256px></img', '<br><img src=stimuli/b_b_3.jpg style=width:256px></img']",1,,,,2,,,,,,,,0.0-25.0,,[0],,<br><img src=stimuli/b_b_2.jpg style=width:256px></img,5499,2,,,lb_hb_c,259389,,surprise_quiz,59,survey-multi-choice,,
1111,1_cube_black,,,,,,,1,,,,,,,,,,,,0.0-26.0,,,,0,4115,,"<p>Thank you for participating!</p>You answered 13 out of 16 trials correctly, and will receive a $0.39 bonus.<p>Now you will complete a short survey before finishing the experiment.</p>",,,263506,,,60,html-button-response,,
1111,1_cube_black,,,,58,0.39,,1,,,,,,Non-Hispanic,,,,I found the pattern quite quickly,Female,0.0-27.0,0.8125,,White,"{'age': '58', 'race': 'White', 'gender': 'Female', 'feedback': 'I found the pattern quite quickly', 'ethnicity': 'Non-Hispanic', 'other_race': '', 'other_gender': ''}",29707,,,,,293215,,exit_survey,61,survey-html-form,,
1185,1_cube_black,,,,,,,1,,,,,,,[],[],[],,,0.0-0.0,,,,,,,,True,,439,False,,0,preload,,
1185,1_cube_black,,,,,,,1,,,,,,,,,,,,0.0-1.0,,,,,,,,True,,3614,,,1,fullscreen,,
1185,1_cube_black,,,,,,,1,,,,,,,,,,,,0.0-2.0,,,,0,11439,,"<p><b>Consent Form</b></p> <div style=""text-align:left;background-color:lightblue; padding:20px; max-width:900px;""><p><b>Description:</b> Welcome! You are invited to participate in a research study in cognitive psychology. You will be asked to perform various tasks on a computer which may include: looking at images or videos, listening to sounds, reading scenarios, or playing games. You may be asked a number of different questions about making judgments and intepreting people's actions. All information collected will remain confidential. </p> <p> <b>Risks and benefits:</b> Risks involved in this study are the same as those normally associated with using a computer (e.g., mild eye/arm strain). If you have any pre- existing conditions that might make reading and completing a computer-based survey strenuous for you, you should probably elect to not participate in this study. If at any time during the study you feel unable to participate because you are experiencing strain, you may end your participation without penalty. We cannot and do not guarantee or promise that you will receive any benefits from this study. Your decision whether or not to participate in this study will not affect your employment, medical care, and/or grades in school. </p><p><b>Time involvement:</b> Your participation in this experiment will take  5 minutes. </p><p><b> Payment:</b> If recruitment materials indicate payment (e.g., Prolific or other recruitment), you will receive compensation as indicated. </p><p><b>Subject's rights:</b> If you have read this notice and have decided to participate in this project, please understand your participation is voluntary and you have the right to withdraw your consent or discontinue participation at any time without penalty or loss of benefits to which you are otherwise entitled. You have the right to refuse to answer particular questions. Your individual privacy will be maintained in all published and written data resulting from the study. </p><p><b>Contact information:</b> If you have any questions, concerns or complaints about this research study, its procedures, or risks and benefits, you should ask the Protocol Director, (Professor Tobias Gerstenberg, Phone: (650) 725-2431; Email: gerstenberg@stanford.edu). </p><p><b>Independent contact:</b> If you are not satisfied with how this study is being conducted, or if you have any concerns, complaints, or general questions about the research or your rights as a participant, please contact the Stanford Institutional Review Board (IRB) to speak to someone independent of the research team via email at irb2-manager@lists.stanford.edu, or via phone at (650) 723-2480 or toll free at 1-866-680-2906. You can also write to the Stanford IRB, Stanford University, 3000 El Camino Real, Five Palo Alto Square, 4th Floor, Palo Alto, CA 94306. </p><p>You may want to print a copy of this consent form to keep. By clicking the button below, you acknowledge that you have read the above information, that you are 18 years of age, or older and give your consent to participate in our internet-based study and consent for us to analyze the resulting data. </p> </div><p> Do you agree with the terms of the experiment as explained above? </p>",,,15055,,,2,html-button-response,,
1185,1_cube_black,,,,,,,1,,,,,,,,,,,,0.0-3.0-0.0,,,,,36761,,,,,51817,,instructions_pt1,3,instructions,"[{'page_index': 0, 'viewing_time': 4292}, {'page_index': 1, 'viewing_time': 7558}, {'page_index': 2, 'viewing_time': 3328}, {'page_index': 3, 'viewing_time': 2346}, {'page_index': 4, 'viewing_time': 8532}, {'page_index': 5, 'viewing_time': 4838}, {'page_index': 6, 'viewing_time': 4044}, {'page_index': 7, 'viewing_time': 1822}]",
1185,1_cube_black,True,,,,,,1,,0,,,,,,,,,,0.0-3.0-1.0-0.0,,,,0,4400,,"<p> In this experiment, you will receive a bonus payment proportional to _________.</p>",,,56219,,comprehension_quiz,4,html-button-response,,
1185,1_cube_black,True,,,,,,1,,1,,,,,,,,,,0.0-3.0-1.0-1.0,,,,1,2944,,You will be asked to predict whether objects _________.,,,59165,,comprehension_quiz,5,html-button-response,,
1185,1_cube_black,,,,,,,1,,,,,,,,,,,,0.0-4.0,,,,0,1392,,The experiment will now begin,,,60559,,,6,html-button-response,,
1185,1_cube_black,,0,,,,,1,False,No,False,,1,,,,,,,0.0-5.0-0.0,,,,Yes,5795,,stimuli/hr_ly_c_first.jpg,,,66365,,prediction_trial,7,image-button-response,,
1185,1_cube_black,,,,,,,1,False,,,,,,,,,,,0.0-5.0-1.0,,,,,,,['stimuli/hr_ly_c.mp4'],,,73763,,video_trial,8,video-button-response,,
1185,1_cube_black,,,,,,,1,,,,,,,,,,,,0.0-5.0-2.0,,,,0,17573,,stimuli/hr_ly_c_last.jpg,,,91337,,feedback_trial,9,image-button-response,,
1185,1_cube_black,,1,,,,,1,True,Yes,True,,3,,,,,,,0.0-6.0-0.0,,,,Yes,2288,,stimuli/lb_ly_c_first.jpg,,,93627,,prediction_trial,10,image-button-response,,
1185,1_cube_black,,,,,,,1,True,,,,,,,,,,,0.0-6.0-1.0,,,,,,,['stimuli/lb_ly_c.mp4'],,,101935,,video_trial,11,video-button-response,,
1185,1_cube_black,,,,,,,1,,,,,,,,,,,,0.0-6.0-2.0,,,,0,4378,,stimuli/lb_ly_c_last.jpg,,,106315,,feedback_trial,12,image-button-response,,
1185,1_cube_black,,1,,,,,1,True,No,False,,1,,,,,,,0.0-7.0-0.0,,,,No,3014,,stimuli/hr_ly_c_first.jpg,,,109330,,prediction_trial,13,image-button-response,,
1185,1_cube_black,,,,,,,1,True,,,,,,,,,,,0.0-7.0-1.0,,,,,,,['stimuli/hr_ly_c.mp4'],,,116722,,video_trial,14,video-button-response,,
1185,1_cube_black,,,,,,,1,,,,,,,,,,,,0.0-7.0-2.0,,,,0,999,,stimuli/hr_ly_c_last.jpg,,,117723,,feedback_trial,15,image-button-response,,
1185,1_cube_black,,1,,,,,1,True,Yes,True,,2,,,,,,,0.0-8.0-0.0,,,,Yes,4486,,stimuli/lb_hb_c_first.jpg,,,122211,,prediction_trial,16,image-button-response,,
1185,1_cube_black,,,,,,,1,True,,,,,,,,,,,0.0-8.0-1.0,,,,,,,['stimuli/lb_hb_c.mp4'],,,130293,,video_trial,17,video-button-response,,
1185,1_cube_black,,,,,,,1,,,,,,,,,,,,0.0-8.0-2.0,,,,0,4624,,stimuli/lb_hb_c_last.jpg,,,134918,,feedback_trial,18,image-button-response,,
1185,1_cube_black,,0,,,,,1,False,No,False,,0,,,,,,,0.0-9.0-0.0,,,,Yes,4276,,stimuli/hr_hb_c_first.jpg,,,139197,,prediction_trial,19,image-button-response,,
1185,1_cube_black,,,,,,,1,False,,,,,,,,,,,0.0-9.0-1.0,,,,,,,['stimuli/hr_hb_c.mp4'],,,145829,,video_trial,20,video-button-response,,
1185,1_cube_black,,,,,,,1,,,,,,,,,,,,0.0-9.0-2.0,,,,0,1328,,stimuli/hr_hb_c_last.jpg,,,147159,,feedback_trial,21,image-button-response,,
1185,1_cube_black,,1,,,,,1,True,Yes,True,,2,,,,,,,0.0-10.0-0.0,,,,Yes,966,,stimuli/lb_hb_c_first.jpg,,,148127,,prediction_trial,22,image-button-response,,
1185,1_cube_black,,,,,,,1,True,,,,,,,,,,,0.0-10.0-1.0,,,,,,,['stimuli/lb_hb_c.mp4'],,,156232,,video_trial,23,video-button-response,,
1185,1_cube_black,,,,,,,1,,,,,,,,,,,,0.0-10.0-2.0,,,,0,969,,stimuli/lb_hb_c_last.jpg,,,157203,,feedback_trial,24,image-button-response,,
1185,1_cube_black,,1,,,,,1,True,No,False,,1,,,,,,,0.0-11.0-0.0,,,,No,1596,,stimuli/hr_ly_c_first.jpg,,,158801,,prediction_trial,25,image-button-response,,
1185,1_cube_black,,,,,,,1,True,,,,,,,,,,,0.0-11.0-1.0,,,,,,,['stimuli/hr_ly_c.mp4'],,,166184,,video_trial,26,video-button-response,,
1185,1_cube_black,,,,,,,1,,,,,,,,,,,,0.0-11.0-2.0,,,,0,827,,stimuli/hr_ly_c_last.jpg,,,167013,,feedback_trial,27,image-button-response,,
1185,1_cube_black,,1,,,,,1,True,No,False,,0,,,,,,,0.0-12.0-0.0,,,,No,1664,,stimuli/hr_hb_c_first.jpg,,,168679,,prediction_trial,28,image-button-response,,
1185,1_cube_black,,,,,,,1,True,,,,,,,,,,,0.0-12.0-1.0,,,,,,,['stimuli/hr_hb_c.mp4'],,,175303,,video_trial,29,video-button-response,,
1185,1_cube_black,,,,,,,1,,,,,,,,,,,,0.0-12.0-2.0,,,,0,901,,stimuli/hr_hb_c_last.jpg,,,176205,,feedback_trial,30,image-button-response,,
1185,1_cube_black,,1,,,,,1,True,Yes,True,,3,,,,,,,0.0-13.0-0.0,,,,Yes,1782,,stimuli/lb_ly_c_first.jpg,,,177989,,prediction_trial,31,image-button-response,,
1185,1_cube_black,,,,,,,1,True,,,,,,,,,,,0.0-13.0-1.0,,,,,,,['stimuli/lb_ly_c.mp4'],,,186289,,video_trial,32,video-button-response,,
1185,1_cube_black,,,,,,,1,,,,,,,,,,,,0.0-13.0-2.0,,,,0,869,,stimuli/lb_ly_c_last.jpg,,,187159,,feedback_trial,33,image-button-response,,
1185,1_cube_black,,1,,,,,1,True,Yes,True,,2,,,,,,,0.0-14.0-0.0,,,,Yes,1728,,stimuli/lb_hb_c_first.jpg,,,188889,,prediction_trial,34,image-button-response,,
1185,1_cube_black,,,,,,,1,True,,,,,,,,,,,0.0-14.0-1.0,,,,,,,['stimuli/lb_hb_c.mp4'],,,196990,,video_trial,35,video-button-response,,
1185,1_cube_black,,,,,,,1,,,,,,,,,,,,0.0-14.0-2.0,,,,0,849,,stimuli/lb_hb_c_last.jpg,,,197841,,feedback_trial,36,image-button-response,,
1185,1_cube_black,,1,,,,,1,True,No,False,,1,,,,,,,0.0-15.0-0.0,,,,No,1774,,stimuli/hr_ly_c_first.jpg,,,199617,,prediction_trial,37,image-button-response,,
1185,1_cube_black,,,,,,,1,True,,,,,,,,,,,0.0-15.0-1.0,,,,,,,['stimuli/hr_ly_c.mp4'],,,207009,,video_trial,38,video-button-response,,
1185,1_cube_black,,,,,,,1,,,,,,,,,,,,0.0-15.0-2.0,,,,0,1068,,stimuli/hr_ly_c_last.jpg,,,208078,,feedback_trial,39,image-button-response,,
1185,1_cube_black,,1,,,,,1,True,No,False,,0,,,,,,,0.0-16.0-0.0,,,,No,1361,,stimuli/hr_hb_c_first.jpg,,,209443,,prediction_trial,40,image-button-response,,
1185,1_cube_black,,,,,,,1,True,,,,,,,,,,,0.0-16.0-1.0,,,,,,,['stimuli/hr_hb_c.mp4'],,,216062,,video_trial,41,video-button-response,,
1185,1_cube_black,,,,,,,1,,,,,,,,,,,,0.0-16.0-2.0,,,,0,999,,stimuli/hr_hb_c_last.jpg,,,217063,,feedback_trial,42,image-button-response,,
1185,1_cube_black,,1,,,,,1,True,Yes,True,,3,,,,,,,0.0-17.0-0.0,,,,Yes,1306,,stimuli/lb_ly_c_first.jpg,,,218371,,prediction_trial,43,image-button-response,,
1185,1_cube_black,,,,,,,1,True,,,,,,,,,,,0.0-17.0-1.0,,,,,,,['stimuli/lb_ly_c.mp4'],,,226665,,video_trial,44,video-button-response,,
1185,1_cube_black,,,,,,,1,,,,,,,,,,,,0.0-17.0-2.0,,,,0,928,,stimuli/lb_ly_c_last.jpg,,,227594,,feedback_trial,45,image-button-response,,
1185,1_cube_black,,1,,,,,1,True,No,False,,0,,,,,,,0.0-18.0-0.0,,,,No,2148,,stimuli/hr_hb_c_first.jpg,,,229745,,prediction_trial,46,image-button-response,,
1185,1_cube_black,,,,,,,1,True,,,,,,,,,,,0.0-18.0-1.0,,,,,,,['stimuli/hr_hb_c.mp4'],,,236368,,video_trial,47,video-button-response,,
1185,1_cube_black,,,,,,,1,,,,,,,,,,,,0.0-18.0-2.0,,,,0,1845,,stimuli/hr_hb_c_last.jpg,,,238214,,feedback_trial,48,image-button-response,,
1185,1_cube_black,,1,,,,,1,True,Yes,True,,2,,,,,,,0.0-19.0-0.0,,,,Yes,1508,,stimuli/lb_hb_c_first.jpg,,,239725,,prediction_trial,49,image-button-response,,
1185,1_cube_black,,,,,,,1,True,,,,,,,,,,,0.0-19.0-1.0,,,,,,,['stimuli/lb_hb_c.mp4'],,,247867,,video_trial,50,video-button-response,,
1185,1_cube_black,,,,,,,1,,,,,,,,,,,,0.0-19.0-2.0,,,,0,995,,stimuli/lb_hb_c_last.jpg,,,248863,,feedback_trial,51,image-button-response,,
1185,1_cube_black,,1,,,,,1,True,Yes,True,,3,,,,,,,0.0-20.0-0.0,,,,Yes,1582,,stimuli/lb_ly_c_first.jpg,,,250446,,prediction_trial,52,image-button-response,,
1185,1_cube_black,,,,,,,1,True,,,,,,,,,,,0.0-20.0-1.0,,,,,,,['stimuli/lb_ly_c.mp4'],,,258755,,video_trial,53,video-button-response,,
1185,1_cube_black,,,,,,,1,,,,,,,,,,,,0.0-20.0-2.0,,,,0,805,,stimuli/lb_ly_c_last.jpg,,,259561,,feedback_trial,54,image-button-response,,
1185,1_cube_black,,,,,,,1,,,,,,,,,,,,0.0-21.0,,,,0,7383,," <p> Now we will ask you to make some different predictions.</p> <p>This time, we'll ask you to select one of four images that correctly shows where the block will end up.</p>",,,266945,,surprise_quiz_instructions,55,html-button-response,,
1185,1_cube_black,True,,True,,,"['<br><img src=stimuli/r_y_0.jpg style=width:204.8px></img', '<br><img src=stimuli/r_y_1.jpg style=width:204.8px></img', '<br><img src=stimuli/r_y_2.jpg style=width:204.8px></img', '<br><img src=stimuli/r_y_3.jpg style=width:204.8px></img']",1,,,,1,,,,,,,,0.0-22.0,,[0],,<br><img src=stimuli/r_y_1.jpg style=width:204.8px></img,12238,1,,,hr_ly_c,279186,,surprise_quiz,56,survey-multi-choice,,
1185,1_cube_black,True,,True,,,"['<br><img src=stimuli/r_b_0.jpg style=width:204.8px></img', '<br><img src=stimuli/r_b_1.jpg style=width:204.8px></img', '<br><img src=stimuli/r_b_2.jpg style=width:204.8px></img', '<br><img src=stimuli/r_b_3.jpg style=width:204.8px></img']",1,,,,0,,,,,,,,0.0-23.0,,[0],,<br><img src=stimuli/r_b_0.jpg style=width:204.8px></img,5721,0,,,hr_hb_c,284911,,surprise_quiz,57,survey-multi-choice,,
1185,1_cube_black,True,,True,,,"['<br><img src=stimuli/b_b_0.jpg style=width:204.8px></img', '<br><img src=stimuli/b_b_1.jpg style=width:204.8px></img', '<br><img src=stimuli/b_b_2.jpg style=width:204.8px></img', '<br><img src=stimuli/b_b_3.jpg style=width:204.8px></img']",1,,,,2,,,,,,,,0.0-24.0,,[0],,<br><img src=stimuli/b_b_2.jpg style=width:204.8px></img,6110,2,,,lb_hb_c,291025,,surprise_quiz,58,survey-multi-choice,,
1185,1_cube_black,True,,True,,,"['<br><img src=stimuli/b_y_0.jpg style=width:204.8px></img', '<br><img src=stimuli/b_y_1.jpg style=width:204.8px></img', '<br><img src=stimuli/b_y_2.jpg style=width:204.8px></img', '<br><img src=stimuli/b_y_3.jpg style=width:204.8px></img']",1,,,,3,,,,,,,,0.0-25.0,,[0],,<br><img src=stimuli/b_y_3.jpg style=width:204.8px></img,5113,3,,,lb_ly_c,296143,,surprise_quiz,59,survey-multi-choice,,
1185,1_cube_black,,,,,,,1,,,,,,,,,,,,0.0-26.0,,,,0,5899,,"<p>Thank you for participating!</p>You answered 14 out of 16 trials correctly, and will receive a $0.42 bonus.<p>Now you will complete a short survey before finishing the experiment.</p>",,,302047,,,60,html-button-response,,
1185,1_cube_black,,,,60,0.42,,1,,,,,,Non-Hispanic,,,,"RED NEVER CROSSED, BLACK ALWAYS CROSSED",Male,0.0-27.0,0.875,,White,"{'age': '60', 'race': 'White', 'gender': 'Male', 'feedback': 'RED NEVER CROSSED, BLACK ALWAYS CROSSED', 'ethnicity': 'Non-Hispanic', 'other_race': '', 'other_gender': ''}",50973,,,,,353022,,exit_survey,61,survey-html-form,,
1189,1_cube_black,,,,,,,1,,,,,,,[],[],[],,,0.0-0.0,,,,,,,,True,,326,False,,0,preload,,
1189,1_cube_black,,,,,,,1,,,,,,,,,,,,0.0-1.0,,,,,,,,True,,4032,,,1,fullscreen,,
1189,1_cube_black,,,,,,,1,,,,,,,,,,,,0.0-2.0,,,,0,3205,,"<p><b>Consent Form</b></p> <div style=""text-align:left;background-color:lightblue; padding:20px; max-width:900px;""><p><b>Description:</b> Welcome! You are invited to participate in a research study in cognitive psychology. You will be asked to perform various tasks on a computer which may include: looking at images or videos, listening to sounds, reading scenarios, or playing games. You may be asked a number of different questions about making judgments and intepreting people's actions. All information collected will remain confidential. </p> <p> <b>Risks and benefits:</b> Risks involved in this study are the same as those normally associated with using a computer (e.g., mild eye/arm strain). If you have any pre- existing conditions that might make reading and completing a computer-based survey strenuous for you, you should probably elect to not participate in this study. If at any time during the study you feel unable to participate because you are experiencing strain, you may end your participation without penalty. We cannot and do not guarantee or promise that you will receive any benefits from this study. Your decision whether or not to participate in this study will not affect your employment, medical care, and/or grades in school. </p><p><b>Time involvement:</b> Your participation in this experiment will take  5 minutes. </p><p><b> Payment:</b> If recruitment materials indicate payment (e.g., Prolific or other recruitment), you will receive compensation as indicated. </p><p><b>Subject's rights:</b> If you have read this notice and have decided to participate in this project, please understand your participation is voluntary and you have the right to withdraw your consent or discontinue participation at any time without penalty or loss of benefits to which you are otherwise entitled. You have the right to refuse to answer particular questions. Your individual privacy will be maintained in all published and written data resulting from the study. </p><p><b>Contact information:</b> If you have any questions, concerns or complaints about this research study, its procedures, or risks and benefits, you should ask the Protocol Director, (Professor Tobias Gerstenberg, Phone: (650) 725-2431; Email: gerstenberg@stanford.edu). </p><p><b>Independent contact:</b> If you are not satisfied with how this study is being conducted, or if you have any concerns, complaints, or general questions about the research or your rights as a participant, please contact the Stanford Institutional Review Board (IRB) to speak to someone independent of the research team via email at irb2-manager@lists.stanford.edu, or via phone at (650) 723-2480 or toll free at 1-866-680-2906. You can also write to the Stanford IRB, Stanford University, 3000 El Camino Real, Five Palo Alto Square, 4th Floor, Palo Alto, CA 94306. </p><p>You may want to print a copy of this consent form to keep. By clicking the button below, you acknowledge that you have read the above information, that you are 18 years of age, or older and give your consent to participate in our internet-based study and consent for us to analyze the resulting data. </p> </div><p> Do you agree with the terms of the experiment as explained above? </p>",,,7240,,,2,html-button-response,,
1189,1_cube_black,,,,,,,1,,,,,,,,,,,,0.0-3.0-0.0,,,,,29525,,,,,36767,,instructions_pt1,3,instructions,"[{'page_index': 0, 'viewing_time': 4775}, {'page_index': 1, 'viewing_time': 2923}, {'page_index': 2, 'viewing_time': 1565}, {'page_index': 3, 'viewing_time': 2265}, {'page_index': 4, 'viewing_time': 3614}, {'page_index': 5, 'viewing_time': 5138}, {'page_index': 6, 'viewing_time': 5824}, {'page_index': 7, 'viewing_time': 3418}]",
1189,1_cube_black,True,,,,,,1,,0,,,,,,,,,,0.0-3.0-1.0-0.0,,,,0,6487,,"<p> In this experiment, you will receive a bonus payment proportional to _________.</p>",,,43256,,comprehension_quiz,4,html-button-response,,
1189,1_cube_black,True,,,,,,1,,1,,,,,,,,,,0.0-3.0-1.0-1.0,,,,1,3365,,You will be asked to predict whether objects _________.,,,46623,,comprehension_quiz,5,html-button-response,,
1189,1_cube_black,,,,,,,1,,,,,,,,,,,,0.0-4.0,,,,0,1427,,The experiment will now begin,,,48052,,,6,html-button-response,,
1189,1_cube_black,,0,,,,,1,False,No,False,,0,,,,,,,0.0-5.0-0.0,,,,Yes,5549,,stimuli/hr_hb_c_first.jpg,,,53616,,prediction_trial,7,image-button-response,,
1189,1_cube_black,,,,,,,1,False,,,,,,,,,,,0.0-5.0-1.0,,,,,,,['stimuli/hr_hb_c.mp4'],,,60336,,video_trial,8,video-button-response,,
1189,1_cube_black,,,,,,,1,,,,,,,,,,,,0.0-5.0-2.0,,,,0,1737,,stimuli/hr_hb_c_last.jpg,,,62079,,feedback_trial,9,image-button-response,,
1189,1_cube_black,,0,,,,,1,False,Yes,True,,2,,,,,,,0.0-6.0-0.0,,,,No,3441,,stimuli/lb_hb_c_first.jpg,,,65524,,prediction_trial,10,image-button-response,,
1189,1_cube_black,,,,,,,1,False,,,,,,,,,,,0.0-6.0-1.0,,,,,,,['stimuli/lb_hb_c.mp4'],,,73637,,video_trial,11,video-button-response,,
1189,1_cube_black,,,,,,,1,,,,,,,,,,,,0.0-6.0-2.0,,,,0,1285,,stimuli/lb_hb_c_last.jpg,,,74944,,feedback_trial,12,image-button-response,,
1189,1_cube_black,,1,,,,,1,True,No,False,,1,,,,,,,0.0-7.0-0.0,,,,No,2623,,stimuli/hr_ly_c_first.jpg,,,77571,,prediction_trial,13,image-button-response,,
1189,1_cube_black,,,,,,,1,True,,,,,,,,,,,0.0-7.0-1.0,,,,,,,['stimuli/hr_ly_c.mp4'],,,84971,,video_trial,14,video-button-response,,
1189,1_cube_black,,,,,,,1,,,,,,,,,,,,0.0-7.0-2.0,,,,0,1829,,stimuli/hr_ly_c_last.jpg,,,86806,,feedback_trial,15,image-button-response,,
1189,1_cube_black,,1,,,,,1,True,No,False,,0,,,,,,,0.0-8.0-0.0,,,,No,2808,,stimuli/hr_hb_c_first.jpg,,,89618,,prediction_trial,16,image-button-response,,
1189,1_cube_black,,,,,,,1,True,,,,,,,,,,,0.0-8.0-1.0,,,,,,,['stimuli/hr_hb_c.mp4'],,,96306,,video_trial,17,video-button-response,,
1189,1_cube_black,,,,,,,1,,,,,,,,,,,,0.0-8.0-2.0,,,,0,1231,,stimuli/hr_hb_c_last.jpg,,,97542,,feedback_trial,18,image-button-response,,
1189,1_cube_black,,1,,,,,1,True,Yes,True,,3,,,,,,,0.0-9.0-0.0,,,,Yes,3154,,stimuli/lb_ly_c_first.jpg,,,100700,,prediction_trial,19,image-button-response,,
1189,1_cube_black,,,,,,,1,True,,,,,,,,,,,0.0-9.0-1.0,,,,,,,['stimuli/lb_ly_c.mp4'],,,109024,,video_trial,20,video-button-response,,
1189,1_cube_black,,,,,,,1,,,,,,,,,,,,0.0-9.0-2.0,,,,0,1218,,stimuli/lb_ly_c_last.jpg,,,110247,,feedback_trial,21,image-button-response,,
1189,1_cube_black,,0,,,,,1,False,No,False,,1,,,,,,,0.0-10.0-0.0,,,,Yes,5108,,stimuli/hr_ly_c_first.jpg,,,115367,,prediction_trial,22,image-button-response,,
1189,1_cube_black,,,,,,,1,False,,,,,,,,,,,0.0-10.0-1.0,,,,,,,['stimuli/hr_ly_c.mp4'],,,122777,,video_trial,23,video-button-response,,
1189,1_cube_black,,,,,,,1,,,,,,,,,,,,0.0-10.0-2.0,,,,0,965,,stimuli/hr_ly_c_last.jpg,,,123747,,feedback_trial,24,image-button-response,,
1189,1_cube_black,,0,,,,,1,False,Yes,True,,2,,,,,,,0.0-11.0-0.0,,,,No,3016,,stimuli/lb_hb_c_first.jpg,,,126767,,prediction_trial,25,image-button-response,,
1189,1_cube_black,,,,,,,1,False,,,,,,,,,,,0.0-11.0-1.0,,,,,,,['stimuli/lb_hb_c.mp4'],,,134876,,video_trial,26,video-button-response,,
1189,1_cube_black,,,,,,,1,,,,,,,,,,,,0.0-11.0-2.0,,,,0,900,,stimuli/lb_hb_c_last.jpg,,,135795,,feedback_trial,27,image-button-response,,
1189,1_cube_black,,1,,,,,1,True,No,False,,0,,,,,,,0.0-12.0-0.0,,,,No,3521,,stimuli/hr_hb_c_first.jpg,,,139321,,prediction_trial,28,image-button-response,,
1189,1_cube_black,,,,,,,1,True,,,,,,,,,,,0.0-12.0-1.0,,,,,,,['stimuli/hr_hb_c.mp4'],,,145977,,video_trial,29,video-button-response,,
1189,1_cube_black,,,,,,,1,,,,,,,,,,,,0.0-12.0-2.0,,,,0,1028,,stimuli/hr_hb_c_last.jpg,,,147010,,feedback_trial,30,image-button-response,,
1189,1_cube_black,,1,,,,,1,True,Yes,True,,3,,,,,,,0.0-13.0-0.0,,,,Yes,2026,,stimuli/lb_ly_c_first.jpg,,,149040,,prediction_trial,31,image-button-response,,
1189,1_cube_black,,,,,,,1,True,,,,,,,,,,,0.0-13.0-1.0,,,,,,,['stimuli/lb_ly_c.mp4'],,,157361,,video_trial,32,video-button-response,,
1189,1_cube_black,,,,,,,1,,,,,,,,,,,,0.0-13.0-2.0,,,,0,1012,,stimuli/lb_ly_c_last.jpg,,,158378,,feedback_trial,33,image-button-response,,
1189,1_cube_black,,1,,,,,1,True,Yes,True,,2,,,,,,,0.0-14.0-0.0,,,,Yes,1947,,stimuli/lb_hb_c_first.jpg,,,160329,,prediction_trial,34,image-button-response,,
1189,1_cube_black,,,,,,,1,True,,,,,,,,,,,0.0-14.0-1.0,,,,,,,['stimuli/lb_hb_c.mp4'],,,168429,,video_trial,35,video-button-response,,
1189,1_cube_black,,,,,,,1,,,,,,,,,,,,0.0-14.0-2.0,,,,0,1388,,stimuli/lb_hb_c_last.jpg,,,169822,,feedback_trial,36,image-button-response,,
1189,1_cube_black,,1,,,,,1,True,Yes,True,,3,,,,,,,0.0-15.0-0.0,,,,Yes,1673,,stimuli/lb_ly_c_first.jpg,,,171498,,prediction_trial,37,image-button-response,,
1189,1_cube_black,,,,,,,1,True,,,,,,,,,,,0.0-15.0-1.0,,,,,,,['stimuli/lb_ly_c.mp4'],,,179847,,video_trial,38,video-button-response,,
1189,1_cube_black,,,,,,,1,,,,,,,,,,,,0.0-15.0-2.0,,,,0,988,,stimuli/lb_ly_c_last.jpg,,,180839,,feedback_trial,39,image-button-response,,
1189,1_cube_black,,1,,,,,1,True,No,False,,1,,,,,,,0.0-16.0-0.0,,,,No,1840,,stimuli/hr_ly_c_first.jpg,,,182683,,prediction_trial,40,image-button-response,,
1189,1_cube_black,,,,,,,1,True,,,,,,,,,,,0.0-16.0-1.0,,,,,,,['stimuli/hr_ly_c.mp4'],,,190082,,video_trial,41,video-button-response,,
1189,1_cube_black,,,,,,,1,,,,,,,,,,,,0.0-16.0-2.0,,,,0,1101,,stimuli/hr_ly_c_last.jpg,,,191188,,feedback_trial,42,image-button-response,,
1189,1_cube_black,,1,,,,,1,True,Yes,True,,2,,,,,,,0.0-17.0-0.0,,,,Yes,2458,,stimuli/lb_hb_c_first.jpg,,,193650,,prediction_trial,43,image-button-response,,
1189,1_cube_black,,,,,,,1,True,,,,,,,,,,,0.0-17.0-1.0,,,,,,,['stimuli/lb_hb_c.mp4'],,,201745,,video_trial,44,video-button-response,,
1189,1_cube_black,,,,,,,1,,,,,,,,,,,,0.0-17.0-2.0,,,,0,1194,,stimuli/lb_hb_c_last.jpg,,,202945,,feedback_trial,45,image-button-response,,
1189,1_cube_black,,0,,,,,1,False,No,False,,0,,,,,,,0.0-18.0-0.0,,,,Yes,1753,,stimuli/hr_hb_c_first.jpg,,,204702,,prediction_trial,46,image-button-response,,
1189,1_cube_black,,,,,,,1,False,,,,,,,,,,,0.0-18.0-1.0,,,,,,,['stimuli/hr_hb_c.mp4'],,,211350,,video_trial,47,video-button-response,,
1189,1_cube_black,,,,,,,1,,,,,,,,,,,,0.0-18.0-2.0,,,,0,890,,stimuli/hr_hb_c_last.jpg,,,212245,,feedback_trial,48,image-button-response,,
1189,1_cube_black,,1,,,,,1,True,Yes,True,,3,,,,,,,0.0-19.0-0.0,,,,Yes,1214,,stimuli/lb_ly_c_first.jpg,,,213464,,prediction_trial,49,image-button-response,,
1189,1_cube_black,,,,,,,1,True,,,,,,,,,,,0.0-19.0-1.0,,,,,,,['stimuli/lb_ly_c.mp4'],,,221786,,video_trial,50,video-button-response,,
1189,1_cube_black,,,,,,,1,,,,,,,,,,,,0.0-19.0-2.0,,,,0,1228,,stimuli/lb_ly_c_last.jpg,,,223019,,feedback_trial,51,image-button-response,,
1189,1_cube_black,,0,,,,,1,False,No,False,,1,,,,,,,0.0-20.0-0.0,,,,Yes,1159,,stimuli/hr_ly_c_first.jpg,,,224182,,prediction_trial,52,image-button-response,,
1189,1_cube_black,,,,,,,1,False,,,,,,,,,,,0.0-20.0-1.0,,,,,,,['stimuli/hr_ly_c.mp4'],,,231587,,video_trial,53,video-button-response,,
1189,1_cube_black,,,,,,,1,,,,,,,,,,,,0.0-20.0-2.0,,,,0,2198,,stimuli/hr_ly_c_last.jpg,,,233789,,feedback_trial,54,image-button-response,,
1189,1_cube_black,,,,,,,1,,,,,,,,,,,,0.0-21.0,,,,0,1638,," <p> Now we will ask you to make some different predictions.</p> <p>This time, we'll ask you to select one of four images that correctly shows where the block will end up.</p>",,,235429,,surprise_quiz_instructions,55,html-button-response,,
1189,1_cube_black,True,,True,,,"['<br><img src=stimuli/b_y_0.jpg style=width:288px></img', '<br><img src=stimuli/b_y_1.jpg style=width:288px></img', '<br><img src=stimuli/b_y_2.jpg style=width:288px></img', '<br><img src=stimuli/b_y_3.jpg style=width:288px></img']",1,,,,3,,,,,,,,0.0-22.0,,[0],,<br><img src=stimuli/b_y_3.jpg style=width:288px></img,7244,3,,,lb_ly_c,242677,,surprise_quiz,56,survey-multi-choice,,
1189,1_cube_black,True,,True,,,"['<br><img src=stimuli/b_b_0.jpg style=width:288px></img', '<br><img src=stimuli/b_b_1.jpg style=width:288px></img', '<br><img src=stimuli/b_b_2.jpg style=width:288px></img', '<br><img src=stimuli/b_b_3.jpg style=width:288px></img']",1,,,,2,,,,,,,,0.0-23.0,,[0],,<br><img src=stimuli/b_b_2.jpg style=width:288px></img,4676,2,,,lb_hb_c,247356,,surprise_quiz,57,survey-multi-choice,,
1189,1_cube_black,True,,True,,,"['<br><img src=stimuli/r_b_0.jpg style=width:288px></img', '<br><img src=stimuli/r_b_1.jpg style=width:288px></img', '<br><img src=stimuli/r_b_2.jpg style=width:288px></img', '<br><img src=stimuli/r_b_3.jpg style=width:288px></img']",1,,,,0,,,,,,,,0.0-24.0,,[0],,<br><img src=stimuli/r_b_0.jpg style=width:288px></img,3362,0,,,hr_hb_c,250721,,surprise_quiz,58,survey-multi-choice,,
1189,1_cube_black,True,,True,,,"['<br><img src=stimuli/r_y_0.jpg style=width:288px></img', '<br><img src=stimuli/r_y_1.jpg style=width:288px></img', '<br><img src=stimuli/r_y_2.jpg style=width:288px></img', '<br><img src=stimuli/r_y_3.jpg style=width:288px></img']",1,,,,1,,,,,,,,0.0-25.0,,[0],,<br><img src=stimuli/r_y_1.jpg style=width:288px></img,4124,1,,,hr_ly_c,254848,,surprise_quiz,59,survey-multi-choice,,
1189,1_cube_black,,,,,,,1,,,,,,,,,,,,0.0-26.0,,,,0,3979,,"<p>Thank you for participating!</p>You answered 10 out of 16 trials correctly, and will receive a $0.30 bonus.<p>Now you will complete a short survey before finishing the experiment.</p>",,,258830,,,60,html-button-response,,
1189,1_cube_black,,,,29,0.3,,1,,,,,,Non-Hispanic,,,,Trial and error,Female,0.0-27.0,0.625,,White,"{'age': '29', 'race': 'White', 'gender': 'Female', 'feedback': 'Trial and error', 'ethnicity': 'Non-Hispanic', 'other_race': '', 'other_gender': ''}",25128,,,,,283978,,exit_survey,61,survey-html-form,,
1115,1_cube_black,,,,,,,1,,,,,,,[],[],[],,,0.0-0.0,,,,,,,,True,,423,False,,0,preload,,
1115,1_cube_black,,,,,,,1,,,,,,,,,,,,0.0-1.0,,,,,,,,True,,49048,,,1,fullscreen,,
1115,1_cube_black,,,,,,,1,,,,,,,,,,,,0.0-2.0,,,,0,2861,,"<p><b>Consent Form</b></p> <div style=""text-align:left;background-color:lightblue; padding:20px; max-width:900px;""><p><b>Description:</b> Welcome! You are invited to participate in a research study in cognitive psychology. You will be asked to perform various tasks on a computer which may include: looking at images or videos, listening to sounds, reading scenarios, or playing games. You may be asked a number of different questions about making judgments and intepreting people's actions. All information collected will remain confidential. </p> <p> <b>Risks and benefits:</b> Risks involved in this study are the same as those normally associated with using a computer (e.g., mild eye/arm strain). If you have any pre- existing conditions that might make reading and completing a computer-based survey strenuous for you, you should probably elect to not participate in this study. If at any time during the study you feel unable to participate because you are experiencing strain, you may end your participation without penalty. We cannot and do not guarantee or promise that you will receive any benefits from this study. Your decision whether or not to participate in this study will not affect your employment, medical care, and/or grades in school. </p><p><b>Time involvement:</b> Your participation in this experiment will take  5 minutes. </p><p><b> Payment:</b> If recruitment materials indicate payment (e.g., Prolific or other recruitment), you will receive compensation as indicated. </p><p><b>Subject's rights:</b> If you have read this notice and have decided to participate in this project, please understand your participation is voluntary and you have the right to withdraw your consent or discontinue participation at any time without penalty or loss of benefits to which you are otherwise entitled. You have the right to refuse to answer particular questions. Your individual privacy will be maintained in all published and written data resulting from the study. </p><p><b>Contact information:</b> If you have any questions, concerns or complaints about this research study, its procedures, or risks and benefits, you should ask the Protocol Director, (Professor Tobias Gerstenberg, Phone: (650) 725-2431; Email: gerstenberg@stanford.edu). </p><p><b>Independent contact:</b> If you are not satisfied with how this study is being conducted, or if you have any concerns, complaints, or general questions about the research or your rights as a participant, please contact the Stanford Institutional Review Board (IRB) to speak to someone independent of the research team via email at irb2-manager@lists.stanford.edu, or via phone at (650) 723-2480 or toll free at 1-866-680-2906. You can also write to the Stanford IRB, Stanford University, 3000 El Camino Real, Five Palo Alto Square, 4th Floor, Palo Alto, CA 94306. </p><p>You may want to print a copy of this consent form to keep. By clicking the button below, you acknowledge that you have read the above information, that you are 18 years of age, or older and give your consent to participate in our internet-based study and consent for us to analyze the resulting data. </p> </div><p> Do you agree with the terms of the experiment as explained above? </p>",,,51911,,,2,html-button-response,,
1115,1_cube_black,,,,,,,1,,,,,,,,,,,,0.0-3.0-0.0,,,,,557824,,,,,609739,,instructions_pt1,3,instructions,"[{'page_index': 0, 'viewing_time': 315884}, {'page_index': 1, 'viewing_time': 72904}, {'page_index': 2, 'viewing_time': 2072}, {'page_index': 3, 'viewing_time': 1513}, {'page_index': 4, 'viewing_time': 102121}, {'page_index': 5, 'viewing_time': 48617}, {'page_index': 6, 'viewing_time': 1545}, {'page_index': 7, 'viewing_time': 13168}]",
1115,1_cube_black,True,,,,,,1,,0,,,,,,,,,,0.0-3.0-1.0-0.0,,,,0,21589,,"<p> In this experiment, you will receive a bonus payment proportional to _________.</p>",,,631331,,comprehension_quiz,4,html-button-response,,
1115,1_cube_black,False,,,,,,1,,1,,,,,,,,,,0.0-3.0-1.0-1.0,,,,0,8246,,You will be asked to predict whether objects _________.,,,639580,,comprehension_quiz,5,html-button-response,,
1115,1_cube_black,False,,,,,,1,,,,,,,,,,,,0.0-3.0-2.0-0.0,,,,0,1831,,<p> Oops! You have answered one or more questions incorrectly.</p><p> Please Review the instructions again before continuing with the experiment </p>,,,641411,,fail_message,6,html-button-response,,
1115,1_cube_black,,,,,,,1,,,,,,,,,,,,0.0-3.1-0.1,,,,,9750,,,,,651163,,instructions_pt1,7,instructions,"[{'page_index': 0, 'viewing_time': 1215}, {'page_index': 1, 'viewing_time': 1648}, {'page_index': 2, 'viewing_time': 1128}, {'page_index': 3, 'viewing_time': 465}, {'page_index': 4, 'viewing_time': 1934}, {'page_index': 5, 'viewing_time': 1336}, {'page_index': 6, 'viewing_time': 936}, {'page_index': 7, 'viewing_time': 1088}]",
1115,1_cube_black,True,,,,,,1,,0,,,,,,,,,,0.0-3.1-1.1-0.1,,,,0,1607,,"<p> In this experiment, you will receive a bonus payment proportional to _________.</p>",,,652772,,comprehension_quiz,8,html-button-response,,
1115,1_cube_black,True,,,,,,1,,1,,,,,,,,,,0.0-3.1-1.1-1.1,,,,1,1029,,You will be asked to predict whether objects _________.,,,653804,,comprehension_quiz,9,html-button-response,,
1115,1_cube_black,,,,,,,1,,,,,,,,,,,,0.0-4.0,,,,0,629,,The experiment will now begin,,,654436,,,10,html-button-response,,
1115,1_cube_black,,1,,,,,1,True,Yes,True,,3,,,,,,,0.0-5.0-0.0,,,,Yes,4421,,stimuli/lb_ly_c_first.jpg,,,658947,,prediction_trial,11,image-button-response,,
1115,1_cube_black,,,,,,,1,True,,,,,,,,,,,0.0-5.0-1.0,,,,,,,['stimuli/lb_ly_c.mp4'],,,667342,,video_trial,12,video-button-response,,
1115,1_cube_black,,,,,,,1,,,,,,,,,,,,0.0-5.0-2.0,,,,0,1619,,stimuli/lb_ly_c_last.jpg,,,669029,,feedback_trial,13,image-button-response,,
1115,1_cube_black,,1,,,,,1,True,Yes,True,,2,,,,,,,0.0-6.0-0.0,,,,Yes,5929,,stimuli/lb_hb_c_first.jpg,,,675044,,prediction_trial,14,image-button-response,,
1115,1_cube_black,,,,,,,1,True,,,,,,,,,,,0.0-6.0-1.0,,,,,,,['stimuli/lb_hb_c.mp4'],,,683160,,video_trial,15,video-button-response,,
1115,1_cube_black,,,,,,,1,,,,,,,,,,,,0.0-6.0-2.0,,,,0,795,,stimuli/lb_hb_c_last.jpg,,,684005,,feedback_trial,16,image-button-response,,
1115,1_cube_black,,1,,,,,1,True,No,False,,0,,,,,,,0.0-7.0-0.0,,,,No,2337,,stimuli/hr_hb_c_first.jpg,,,686413,,prediction_trial,17,image-button-response,,
1115,1_cube_black,,,,,,,1,True,,,,,,,,,,,0.0-7.0-1.0,,,,,,,['stimuli/hr_hb_c.mp4'],,,693066,,video_trial,18,video-button-response,,
1115,1_cube_black,,,,,,,1,,,,,,,,,,,,0.0-7.0-2.0,,,,0,612,,stimuli/hr_hb_c_last.jpg,,,693764,,feedback_trial,19,image-button-response,,
1115,1_cube_black,,1,,,,,1,True,Yes,True,,2,,,,,,,0.0-8.0-0.0,,,,Yes,2398,,stimuli/lb_hb_c_first.jpg,,,696221,,prediction_trial,20,image-button-response,,
1115,1_cube_black,,,,,,,1,True,,,,,,,,,,,0.0-8.0-1.0,,,,,,,['stimuli/lb_hb_c.mp4'],,,704342,,video_trial,21,video-button-response,,
1115,1_cube_black,,,,,,,1,,,,,,,,,,,,0.0-8.0-2.0,,,,0,752,,stimuli/lb_hb_c_last.jpg,,,705141,,feedback_trial,22,image-button-response,,
1115,1_cube_black,,1,,,,,1,True,No,False,,0,,,,,,,0.0-9.0-0.0,,,,No,4916,,stimuli/hr_hb_c_first.jpg,,,710126,,prediction_trial,23,image-button-response,,
1115,1_cube_black,,,,,,,1,True,,,,,,,,,,,0.0-9.0-1.0,,,,,,,['stimuli/hr_hb_c.mp4'],,,716791,,video_trial,24,video-button-response,,
1115,1_cube_black,,,,,,,1,,,,,,,,,,,,0.0-9.0-2.0,,,,0,575,,stimuli/hr_hb_c_last.jpg,,,717438,,feedback_trial,25,image-button-response,,
1115,1_cube_black,,1,,,,,1,True,Yes,True,,3,,,,,,,0.0-10.0-0.0,,,,Yes,1970,,stimuli/lb_ly_c_first.jpg,,,719502,,prediction_trial,26,image-button-response,,
1115,1_cube_black,,,,,,,1,True,,,,,,,,,,,0.0-10.0-1.0,,,,,,,['stimuli/lb_ly_c.mp4'],,,727827,,video_trial,27,video-button-response,,
1115,1_cube_black,,,,,,,1,,,,,,,,,,,,0.0-10.0-2.0,,,,0,513,,stimuli/lb_ly_c_last.jpg,,,728374,,feedback_trial,28,image-button-response,,
1115,1_cube_black,,1,,,,,1,True,No,False,,1,,,,,,,0.0-11.0-0.0,,,,No,1625,,stimuli/hr_ly_c_first.jpg,,,730069,,prediction_trial,29,image-button-response,,
1115,1_cube_black,,,,,,,1,True,,,,,,,,,,,0.0-11.0-1.0,,,,,,,['stimuli/hr_ly_c.mp4'],,,737487,,video_trial,30,video-button-response,,
1115,1_cube_black,,,,,,,1,,,,,,,,,,,,0.0-11.0-2.0,,,,0,395,,stimuli/hr_ly_c_last.jpg,,,737974,,feedback_trial,31,image-button-response,,
1115,1_cube_black,,1,,,,,1,True,No,False,,0,,,,,,,0.0-12.0-0.0,,,,No,1815,,stimuli/hr_hb_c_first.jpg,,,739846,,prediction_trial,32,image-button-response,,
1115,1_cube_black,,,,,,,1,True,,,,,,,,,,,0.0-12.0-1.0,,,,,,,['stimuli/hr_hb_c.mp4'],,,746504,,video_trial,33,video-button-response,,
1115,1_cube_black,,,,,,,1,,,,,,,,,,,,0.0-12.0-2.0,,,,0,488,,stimuli/hr_hb_c_last.jpg,,,747022,,feedback_trial,34,image-button-response,,
1115,1_cube_black,,1,,,,,1,True,Yes,True,,2,,,,,,,0.0-13.0-0.0,,,,Yes,1179,,stimuli/lb_hb_c_first.jpg,,,748238,,prediction_trial,35,image-button-response,,
1115,1_cube_black,,,,,,,1,True,,,,,,,,,,,0.0-13.0-1.0,,,,,,,['stimuli/lb_hb_c.mp4'],,,756358,,video_trial,36,video-button-response,,
1115,1_cube_black,,,,,,,1,,,,,,,,,,,,0.0-13.0-2.0,,,,0,399,,stimuli/lb_hb_c_last.jpg,,,756806,,feedback_trial,37,image-button-response,,
1115,1_cube_black,,1,,,,,1,True,No,False,,1,,,,,,,0.0-14.0-0.0,,,,No,1381,,stimuli/hr_ly_c_first.jpg,,,758230,,prediction_trial,38,image-button-response,,
1115,1_cube_black,,,,,,,1,True,,,,,,,,,,,0.0-14.0-1.0,,,,,,,['stimuli/hr_ly_c.mp4'],,,765644,,video_trial,39,video-button-response,,
1115,1_cube_black,,,,,,,1,,,,,,,,,,,,0.0-14.0-2.0,,,,0,414,,stimuli/hr_ly_c_last.jpg,,,766094,,feedback_trial,40,image-button-response,,
1115,1_cube_black,,1,,,,,1,True,Yes,True,,3,,,,,,,0.0-15.0-0.0,,,,Yes,1218,,stimuli/lb_ly_c_first.jpg,,,767358,,prediction_trial,41,image-button-response,,
1115,1_cube_black,,,,,,,1,True,,,,,,,,,,,0.0-15.0-1.0,,,,,,,['stimuli/lb_ly_c.mp4'],,,775684,,video_trial,42,video-button-response,,
1115,1_cube_black,,,,,,,1,,,,,,,,,,,,0.0-15.0-2.0,,,,0,425,,stimuli/lb_ly_c_last.jpg,,,776158,,feedback_trial,43,image-button-response,,
1115,1_cube_black,,1,,,,,1,True,No,False,,0,,,,,,,0.0-16.0-0.0,,,,No,1721,,stimuli/hr_hb_c_first.jpg,,,777926,,prediction_trial,44,image-button-response,,
1115,1_cube_black,,,,,,,1,True,,,,,,,,,,,0.0-16.0-1.0,,,,,,,['stimuli/hr_hb_c.mp4'],,,784593,,video_trial,45,video-button-response,,
1115,1_cube_black,,,,,,,1,,,,,,,,,,,,0.0-16.0-2.0,,,,0,439,,stimuli/hr_hb_c_last.jpg,,,785102,,feedback_trial,46,image-button-response,,
1115,1_cube_black,,1,,,,,1,True,Yes,True,,3,,,,,,,0.0-17.0-0.0,,,,Yes,1297,,stimuli/lb_ly_c_first.jpg,,,786470,,prediction_trial,47,image-button-response,,
1115,1_cube_black,,,,,,,1,True,,,,,,,,,,,0.0-17.0-1.0,,,,,,,['stimuli/lb_ly_c.mp4'],,,794795,,video_trial,48,video-button-response,,
1115,1_cube_black,,,,,,,1,,,,,,,,,,,,0.0-17.0-2.0,,,,0,2658,,stimuli/lb_ly_c_last.jpg,,,797495,,feedback_trial,49,image-button-response,,
1115,1_cube_black,,1,,,,,1,True,No,False,,1,,,,,,,0.0-18.0-0.0,,,,No,1391,,stimuli/hr_ly_c_first.jpg,,,798919,,prediction_trial,50,image-button-response,,
1115,1_cube_black,,,,,,,1,True,,,,,,,,,,,0.0-18.0-1.0,,,,,,,['stimuli/hr_ly_c.mp4'],,,806324,,video_trial,51,video-button-response,,
1115,1_cube_black,,,,,,,1,,,,,,,,,,,,0.0-18.0-2.0,,,,0,643,,stimuli/hr_ly_c_last.jpg,,,807007,,feedback_trial,52,image-button-response,,
1115,1_cube_black,,1,,,,,1,True,Yes,True,,2,,,,,,,0.0-19.0-0.0,,,,Yes,1166,,stimuli/lb_hb_c_first.jpg,,,808207,,prediction_trial,53,image-button-response,,
1115,1_cube_black,,,,,,,1,True,,,,,,,,,,,0.0-19.0-1.0,,,,,,,['stimuli/lb_hb_c.mp4'],,,816323,,video_trial,54,video-button-response,,
1115,1_cube_black,,,,,,,1,,,,,,,,,,,,0.0-19.0-2.0,,,,0,1820,,stimuli/lb_hb_c_last.jpg,,,818184,,feedback_trial,55,image-button-response,,
1115,1_cube_black,,1,,,,,1,True,No,False,,1,,,,,,,0.0-20.0-0.0,,,,No,1671,,stimuli/hr_ly_c_first.jpg,,,819927,,prediction_trial,56,image-button-response,,
1115,1_cube_black,,,,,,,1,True,,,,,,,,,,,0.0-20.0-1.0,,,,,,,['stimuli/hr_ly_c.mp4'],,,827331,,video_trial,57,video-button-response,,
1115,1_cube_black,,,,,,,1,,,,,,,,,,,,0.0-20.0-2.0,,,,0,396,,stimuli/hr_ly_c_last.jpg,,,827792,,feedback_trial,58,image-button-response,,
1115,1_cube_black,,,,,,,1,,,,,,,,,,,,0.0-21.0,,,,0,1238,," <p> Now we will ask you to make some different predictions.</p> <p>This time, we'll ask you to select one of four images that correctly shows where the block will end up.</p>",,,829031,,surprise_quiz_instructions,59,html-button-response,,
1115,1_cube_black,False,,True,,,"['<br><img src=stimuli/b_y_0.jpg style=width:512px></img', '<br><img src=stimuli/b_y_1.jpg style=width:512px></img', '<br><img src=stimuli/b_y_2.jpg style=width:512px></img', '<br><img src=stimuli/b_y_3.jpg style=width:512px></img']",1,,,,3,,,,,,,,0.0-22.0,,[0],,<br><img src=stimuli/b_y_2.jpg style=width:512px></img,8051,2,,,lb_ly_c,837085,,surprise_quiz,60,survey-multi-choice,,
1115,1_cube_black,False,,True,,,"['<br><img src=stimuli/b_b_0.jpg style=width:512px></img', '<br><img src=stimuli/b_b_1.jpg style=width:512px></img', '<br><img src=stimuli/b_b_2.jpg style=width:512px></img', '<br><img src=stimuli/b_b_3.jpg style=width:512px></img']",1,,,,2,,,,,,,,0.0-23.0,,[0],,<br><img src=stimuli/b_b_3.jpg style=width:512px></img,4666,3,,,lb_hb_c,841768,,surprise_quiz,61,survey-multi-choice,,
1115,1_cube_black,True,,True,,,"['<br><img src=stimuli/r_b_0.jpg style=width:512px></img', '<br><img src=stimuli/r_b_1.jpg style=width:512px></img', '<br><img src=stimuli/r_b_2.jpg style=width:512px></img', '<br><img src=stimuli/r_b_3.jpg style=width:512px></img']",1,,,,0,,,,,,,,0.0-24.0,,[0],,<br><img src=stimuli/r_b_0.jpg style=width:512px></img,9706,0,,,hr_hb_c,851481,,surprise_quiz,62,survey-multi-choice,,
1115,1_cube_black,True,,True,,,"['<br><img src=stimuli/r_y_0.jpg style=width:512px></img', '<br><img src=stimuli/r_y_1.jpg style=width:512px></img', '<br><img src=stimuli/r_y_2.jpg style=width:512px></img', '<br><img src=stimuli/r_y_3.jpg style=width:512px></img']",1,,,,1,,,,,,,,0.0-25.0,,[0],,<br><img src=stimuli/r_y_1.jpg style=width:512px></img,4856,1,,,hr_ly_c,856354,,surprise_quiz,63,survey-multi-choice,,
1115,1_cube_black,,,,,,,1,,,,,,,,,,,,0.0-26.0,,,,0,1319,,"<p>Thank you for participating!</p>You answered 16 out of 16 trials correctly, and will receive a $0.48 bonus.<p>Now you will complete a short survey before finishing the experiment.</p>",,,857681,,,64,html-button-response,,
1115,1_cube_black,,,,34,0.48,,1,,,,,,Hispanic,,,,The only factor was a pattern that red blocks would not go across the finish line.,Male,0.0-27.0,1,,White,"{'age': '34', 'race': 'White', 'gender': 'Male', 'feedback': 'The only factor was a pattern that red blocks would not go across the finish line.', 'ethnicity': 'Hispanic', 'other_race': '', 'other_gender': ''}",41187,,,,,898875,,exit_survey,65,survey-html-form,,
1127,1_cube_black,,,,,,,1,,,,,,,[],[],[],,,0.0-0.0,,,,,,,,True,,1825,False,,0,preload,,
1127,1_cube_black,,,,,,,1,,,,,,,,,,,,0.0-1.0,,,,,,,,True,,4011,,,1,fullscreen,,
1127,1_cube_black,,,,,,,1,,,,,,,,,,,,0.0-2.0,,,,0,2927,,"<p><b>Consent Form</b></p> <div style=""text-align:left;background-color:lightblue; padding:20px; max-width:900px;""><p><b>Description:</b> Welcome! You are invited to participate in a research study in cognitive psychology. You will be asked to perform various tasks on a computer which may include: looking at images or videos, listening to sounds, reading scenarios, or playing games. You may be asked a number of different questions about making judgments and intepreting people's actions. All information collected will remain confidential. </p> <p> <b>Risks and benefits:</b> Risks involved in this study are the same as those normally associated with using a computer (e.g., mild eye/arm strain). If you have any pre- existing conditions that might make reading and completing a computer-based survey strenuous for you, you should probably elect to not participate in this study. If at any time during the study you feel unable to participate because you are experiencing strain, you may end your participation without penalty. We cannot and do not guarantee or promise that you will receive any benefits from this study. Your decision whether or not to participate in this study will not affect your employment, medical care, and/or grades in school. </p><p><b>Time involvement:</b> Your participation in this experiment will take  5 minutes. </p><p><b> Payment:</b> If recruitment materials indicate payment (e.g., Prolific or other recruitment), you will receive compensation as indicated. </p><p><b>Subject's rights:</b> If you have read this notice and have decided to participate in this project, please understand your participation is voluntary and you have the right to withdraw your consent or discontinue participation at any time without penalty or loss of benefits to which you are otherwise entitled. You have the right to refuse to answer particular questions. Your individual privacy will be maintained in all published and written data resulting from the study. </p><p><b>Contact information:</b> If you have any questions, concerns or complaints about this research study, its procedures, or risks and benefits, you should ask the Protocol Director, (Professor Tobias Gerstenberg, Phone: (650) 725-2431; Email: gerstenberg@stanford.edu). </p><p><b>Independent contact:</b> If you are not satisfied with how this study is being conducted, or if you have any concerns, complaints, or general questions about the research or your rights as a participant, please contact the Stanford Institutional Review Board (IRB) to speak to someone independent of the research team via email at irb2-manager@lists.stanford.edu, or via phone at (650) 723-2480 or toll free at 1-866-680-2906. You can also write to the Stanford IRB, Stanford University, 3000 El Camino Real, Five Palo Alto Square, 4th Floor, Palo Alto, CA 94306. </p><p>You may want to print a copy of this consent form to keep. By clicking the button below, you acknowledge that you have read the above information, that you are 18 years of age, or older and give your consent to participate in our internet-based study and consent for us to analyze the resulting data. </p> </div><p> Do you agree with the terms of the experiment as explained above? </p>",,,6940,,,2,html-button-response,,
1127,1_cube_black,,,,,,,1,,,,,,,,,,,,0.0-3.0-0.0,,,,,27234,,,,,34175,,instructions_pt1,3,instructions,"[{'page_index': 0, 'viewing_time': 4111}, {'page_index': 1, 'viewing_time': 4672}, {'page_index': 2, 'viewing_time': 2189}, {'page_index': 3, 'viewing_time': 2241}, {'page_index': 4, 'viewing_time': 6015}, {'page_index': 5, 'viewing_time': 3175}, {'page_index': 6, 'viewing_time': 3505}, {'page_index': 7, 'viewing_time': 1324}]",
1127,1_cube_black,True,,,,,,1,,0,,,,,,,,,,0.0-3.0-1.0-0.0,,,,0,5068,,"<p> In this experiment, you will receive a bonus payment proportional to _________.</p>",,,39244,,comprehension_quiz,4,html-button-response,,
1127,1_cube_black,True,,,,,,1,,1,,,,,,,,,,0.0-3.0-1.0-1.0,,,,1,2512,,You will be asked to predict whether objects _________.,,,41757,,comprehension_quiz,5,html-button-response,,
1127,1_cube_black,,,,,,,1,,,,,,,,,,,,0.0-4.0,,,,0,1374,,The experiment will now begin,,,43133,,,6,html-button-response,,
1127,1_cube_black,,1,,,,,1,True,No,False,,0,,,,,,,0.0-5.0-0.0,,,,No,2709,,stimuli/hr_hb_c_first.jpg,,,45845,,prediction_trial,7,image-button-response,,
1127,1_cube_black,,,,,,,1,True,,,,,,,,,,,0.0-5.0-1.0,,,,,,,['stimuli/hr_hb_c.mp4'],,,52502,,video_trial,8,video-button-response,,
1127,1_cube_black,,,,,,,1,,,,,,,,,,,,0.0-5.0-2.0,,,,0,1600,,stimuli/hr_hb_c_last.jpg,,,54105,,feedback_trial,9,image-button-response,,
1127,1_cube_black,,1,,,,,1,True,Yes,True,,2,,,,,,,0.0-6.0-0.0,,,,Yes,4033,,stimuli/lb_hb_c_first.jpg,,,58140,,prediction_trial,10,image-button-response,,
1127,1_cube_black,,,,,,,1,True,,,,,,,,,,,0.0-6.0-1.0,,,,,,,['stimuli/lb_hb_c.mp4'],,,66252,,video_trial,11,video-button-response,,
1127,1_cube_black,,,,,,,1,,,,,,,,,,,,0.0-6.0-2.0,,,,0,813,,stimuli/lb_hb_c_last.jpg,,,67068,,feedback_trial,12,image-button-response,,
1127,1_cube_black,,1,,,,,1,True,No,False,,0,,,,,,,0.0-7.0-0.0,,,,No,1298,,stimuli/hr_hb_c_first.jpg,,,68367,,prediction_trial,13,image-button-response,,
1127,1_cube_black,,,,,,,1,True,,,,,,,,,,,0.0-7.0-1.0,,,,,,,['stimuli/hr_hb_c.mp4'],,,75019,,video_trial,14,video-button-response,,
1127,1_cube_black,,,,,,,1,,,,,,,,,,,,0.0-7.0-2.0,,,,0,1145,,stimuli/hr_hb_c_last.jpg,,,76166,,feedback_trial,15,image-button-response,,
1127,1_cube_black,,1,,,,,1,True,Yes,True,,2,,,,,,,0.0-8.0-0.0,,,,Yes,1213,,stimuli/lb_hb_c_first.jpg,,,77380,,prediction_trial,16,image-button-response,,
1127,1_cube_black,,,,,,,1,True,,,,,,,,,,,0.0-8.0-1.0,,,,,,,['stimuli/lb_hb_c.mp4'],,,85483,,video_trial,17,video-button-response,,
1127,1_cube_black,,,,,,,1,,,,,,,,,,,,0.0-8.0-2.0,,,,0,1399,,stimuli/lb_hb_c_last.jpg,,,86884,,feedback_trial,18,image-button-response,,
1127,1_cube_black,,1,,,,,1,True,No,False,,1,,,,,,,0.0-9.0-0.0,,,,No,1141,,stimuli/hr_ly_c_first.jpg,,,88026,,prediction_trial,19,image-button-response,,
1127,1_cube_black,,,,,,,1,True,,,,,,,,,,,0.0-9.0-1.0,,,,,,,['stimuli/hr_ly_c.mp4'],,,95447,,video_trial,20,video-button-response,,
1127,1_cube_black,,,,,,,1,,,,,,,,,,,,0.0-9.0-2.0,,,,0,767,,stimuli/hr_ly_c_last.jpg,,,96216,,feedback_trial,21,image-button-response,,
1127,1_cube_black,,1,,,,,1,True,Yes,True,,2,,,,,,,0.0-10.0-0.0,,,,Yes,1995,,stimuli/lb_hb_c_first.jpg,,,98213,,prediction_trial,22,image-button-response,,
1127,1_cube_black,,,,,,,1,True,,,,,,,,,,,0.0-10.0-1.0,,,,,,,['stimuli/lb_hb_c.mp4'],,,106331,,video_trial,23,video-button-response,,
1127,1_cube_black,,,,,,,1,,,,,,,,,,,,0.0-10.0-2.0,,,,0,712,,stimuli/lb_hb_c_last.jpg,,,107045,,feedback_trial,24,image-button-response,,
1127,1_cube_black,,1,,,,,1,True,Yes,True,,3,,,,,,,0.0-11.0-0.0,,,,Yes,2127,,stimuli/lb_ly_c_first.jpg,,,109172,,prediction_trial,25,image-button-response,,
1127,1_cube_black,,,,,,,1,True,,,,,,,,,,,0.0-11.0-1.0,,,,,,,['stimuli/lb_ly_c.mp4'],,,117511,,video_trial,26,video-button-response,,
1127,1_cube_black,,,,,,,1,,,,,,,,,,,,0.0-11.0-2.0,,,,0,697,,stimuli/lb_ly_c_last.jpg,,,118210,,feedback_trial,27,image-button-response,,
1127,1_cube_black,,1,,,,,1,True,No,False,,1,,,,,,,0.0-12.0-0.0,,,,No,1230,,stimuli/hr_ly_c_first.jpg,,,119441,,prediction_trial,28,image-button-response,,
1127,1_cube_black,,,,,,,1,True,,,,,,,,,,,0.0-12.0-1.0,,,,,,,['stimuli/hr_ly_c.mp4'],,,126861,,video_trial,29,video-button-response,,
1127,1_cube_black,,,,,,,1,,,,,,,,,,,,0.0-12.0-2.0,,,,0,1864,,stimuli/hr_ly_c_last.jpg,,,128726,,feedback_trial,30,image-button-response,,
1127,1_cube_black,,1,,,,,1,True,Yes,True,,3,,,,,,,0.0-13.0-0.0,,,,Yes,980,,stimuli/lb_ly_c_first.jpg,,,129707,,prediction_trial,31,image-button-response,,
1127,1_cube_black,,,,,,,1,True,,,,,,,,,,,0.0-13.0-1.0,,,,,,,['stimuli/lb_ly_c.mp4'],,,138041,,video_trial,32,video-button-response,,
1127,1_cube_black,,,,,,,1,,,,,,,,,,,,0.0-13.0-2.0,,,,0,603,,stimuli/lb_ly_c_last.jpg,,,138646,,feedback_trial,33,image-button-response,,
1127,1_cube_black,,1,,,,,1,True,No,False,,0,,,,,,,0.0-14.0-0.0,,,,No,1303,,stimuli/hr_hb_c_first.jpg,,,139950,,prediction_trial,34,image-button-response,,
1127,1_cube_black,,,,,,,1,True,,,,,,,,,,,0.0-14.0-1.0,,,,,,,['stimuli/hr_hb_c.mp4'],,,146608,,video_trial,35,video-button-response,,
1127,1_cube_black,,,,,,,1,,,,,,,,,,,,0.0-14.0-2.0,,,,0,724,,stimuli/hr_hb_c_last.jpg,,,147334,,feedback_trial,36,image-button-response,,
1127,1_cube_black,,1,,,,,1,True,No,False,,1,,,,,,,0.0-15.0-0.0,,,,No,1532,,stimuli/hr_ly_c_first.jpg,,,148867,,prediction_trial,37,image-button-response,,
1127,1_cube_black,,,,,,,1,True,,,,,,,,,,,0.0-15.0-1.0,,,,,,,['stimuli/hr_ly_c.mp4'],,,156289,,video_trial,38,video-button-response,,
1127,1_cube_black,,,,,,,1,,,,,,,,,,,,0.0-15.0-2.0,,,,0,466,,stimuli/hr_ly_c_last.jpg,,,156758,,feedback_trial,39,image-button-response,,
1127,1_cube_black,,1,,,,,1,True,Yes,True,,2,,,,,,,0.0-16.0-0.0,,,,Yes,703,,stimuli/lb_hb_c_first.jpg,,,157462,,prediction_trial,40,image-button-response,,
1127,1_cube_black,,,,,,,1,True,,,,,,,,,,,0.0-16.0-1.0,,,,,,,['stimuli/lb_hb_c.mp4'],,,165573,,video_trial,41,video-button-response,,
1127,1_cube_black,,,,,,,1,,,,,,,,,,,,0.0-16.0-2.0,,,,0,4444,,stimuli/lb_hb_c_last.jpg,,,170019,,feedback_trial,42,image-button-response,,
1127,1_cube_black,,1,,,,,1,True,No,False,,1,,,,,,,0.0-17.0-0.0,,,,No,1117,,stimuli/hr_ly_c_first.jpg,,,171138,,prediction_trial,43,image-button-response,,
1127,1_cube_black,,,,,,,1,True,,,,,,,,,,,0.0-17.0-1.0,,,,,,,['stimuli/hr_ly_c.mp4'],,,178552,,video_trial,44,video-button-response,,
1127,1_cube_black,,,,,,,1,,,,,,,,,,,,0.0-17.0-2.0,,,,0,546,,stimuli/hr_ly_c_last.jpg,,,179099,,feedback_trial,45,image-button-response,,
1127,1_cube_black,,1,,,,,1,True,Yes,True,,3,,,,,,,0.0-18.0-0.0,,,,Yes,937,,stimuli/lb_ly_c_first.jpg,,,180038,,prediction_trial,46,image-button-response,,
1127,1_cube_black,,,,,,,1,True,,,,,,,,,,,0.0-18.0-1.0,,,,,,,['stimuli/lb_ly_c.mp4'],,,188372,,video_trial,47,video-button-response,,
1127,1_cube_black,,,,,,,1,,,,,,,,,,,,0.0-18.0-2.0,,,,0,1364,,stimuli/lb_ly_c_last.jpg,,,189738,,feedback_trial,48,image-button-response,,
1127,1_cube_black,,1,,,,,1,True,No,False,,0,,,,,,,0.0-19.0-0.0,,,,No,914,,stimuli/hr_hb_c_first.jpg,,,190652,,prediction_trial,49,image-button-response,,
1127,1_cube_black,,,,,,,1,True,,,,,,,,,,,0.0-19.0-1.0,,,,,,,['stimuli/hr_hb_c.mp4'],,,197301,,video_trial,50,video-button-response,,
1127,1_cube_black,,,,,,,1,,,,,,,,,,,,0.0-19.0-2.0,,,,0,3134,,stimuli/hr_hb_c_last.jpg,,,200437,,feedback_trial,51,image-button-response,,
1127,1_cube_black,,1,,,,,1,True,Yes,True,,3,,,,,,,0.0-20.0-0.0,,,,Yes,849,,stimuli/lb_ly_c_first.jpg,,,201287,,prediction_trial,52,image-button-response,,
1127,1_cube_black,,,,,,,1,True,,,,,,,,,,,0.0-20.0-1.0,,,,,,,['stimuli/lb_ly_c.mp4'],,,209618,,video_trial,53,video-button-response,,
1127,1_cube_black,,,,,,,1,,,,,,,,,,,,0.0-20.0-2.0,,,,0,1635,,stimuli/lb_ly_c_last.jpg,,,211255,,feedback_trial,54,image-button-response,,
1127,1_cube_black,,,,,,,1,,,,,,,,,,,,0.0-21.0,,,,0,1272,," <p> Now we will ask you to make some different predictions.</p> <p>This time, we'll ask you to select one of four images that correctly shows where the block will end up.</p>",,,212528,,surprise_quiz_instructions,55,html-button-response,,
1127,1_cube_black,False,,True,,,"['<br><img src=stimuli/b_b_0.jpg style=width:320px></img', '<br><img src=stimuli/b_b_1.jpg style=width:320px></img', '<br><img src=stimuli/b_b_2.jpg style=width:320px></img', '<br><img src=stimuli/b_b_3.jpg style=width:320px></img']",1,,,,2,,,,,,,,0.0-22.0,,[0],,<br><img src=stimuli/b_b_3.jpg style=width:320px></img,15063,3,,,lb_hb_c,227595,,surprise_quiz,56,survey-multi-choice,,
1127,1_cube_black,True,,True,,,"['<br><img src=stimuli/r_b_0.jpg style=width:320px></img', '<br><img src=stimuli/r_b_1.jpg style=width:320px></img', '<br><img src=stimuli/r_b_2.jpg style=width:320px></img', '<br><img src=stimuli/r_b_3.jpg style=width:320px></img']",1,,,,0,,,,,,,,0.0-23.0,,[0],,<br><img src=stimuli/r_b_0.jpg style=width:320px></img,7949,0,,,hr_hb_c,235546,,surprise_quiz,57,survey-multi-choice,,
1127,1_cube_black,True,,True,,,"['<br><img src=stimuli/r_y_0.jpg style=width:320px></img', '<br><img src=stimuli/r_y_1.jpg style=width:320px></img', '<br><img src=stimuli/r_y_2.jpg style=width:320px></img', '<br><img src=stimuli/r_y_3.jpg style=width:320px></img']",1,,,,1,,,,,,,,0.0-24.0,,[0],,<br><img src=stimuli/r_y_1.jpg style=width:320px></img,3077,1,,,hr_ly_c,238625,,surprise_quiz,58,survey-multi-choice,,
1127,1_cube_black,True,,True,,,"['<br><img src=stimuli/b_y_0.jpg style=width:320px></img', '<br><img src=stimuli/b_y_1.jpg style=width:320px></img', '<br><img src=stimuli/b_y_2.jpg style=width:320px></img', '<br><img src=stimuli/b_y_3.jpg style=width:320px></img']",1,,,,3,,,,,,,,0.0-25.0,,[0],,<br><img src=stimuli/b_y_3.jpg style=width:320px></img,6922,3,,,lb_ly_c,245549,,surprise_quiz,59,survey-multi-choice,,
1127,1_cube_black,,,,,,,1,,,,,,,,,,,,0.0-26.0,,,,0,1625,,"<p>Thank you for participating!</p>You answered 16 out of 16 trials correctly, and will receive a $0.48 bonus.<p>Now you will complete a short survey before finishing the experiment.</p>",,,247176,,,60,html-button-response,,
1127,1_cube_black,,,,29,0.48,,1,,,,,,Non-Hispanic,,,,Initially I just guessed with the black and the red blocks and I just got lucky. But then I noticed that black always passed the finish line and red never did no matter what.,Female,0.0-27.0,1,,White,"{'age': '29', 'race': 'White', 'gender': 'Female', 'feedback': 'Initially I just guessed with the black and the red blocks and I just got lucky. But then I noticed that black always passed the finish line and red never did no matter what.', 'ethnicity': 'Non-Hispanic', 'other_race': '', 'other_gender': ''}",34764,,,,,281943,,exit_survey,61,survey-html-form,,
1149,1_cube_black,,,,,,,1,,,,,,,[],[],[],,,0.0-0.0,,,,,,,,True,,805,False,,0,preload,,
1149,1_cube_black,,,,,,,1,,,,,,,,,,,,0.0-1.0,,,,,,,,True,,7237,,,1,fullscreen,,
1149,1_cube_black,,,,,,,1,,,,,,,,,,,,0.0-2.0,,,,0,2559,,"<p><b>Consent Form</b></p> <div style=""text-align:left;background-color:lightblue; padding:20px; max-width:900px;""><p><b>Description:</b> Welcome! You are invited to participate in a research study in cognitive psychology. You will be asked to perform various tasks on a computer which may include: looking at images or videos, listening to sounds, reading scenarios, or playing games. You may be asked a number of different questions about making judgments and intepreting people's actions. All information collected will remain confidential. </p> <p> <b>Risks and benefits:</b> Risks involved in this study are the same as those normally associated with using a computer (e.g., mild eye/arm strain). If you have any pre- existing conditions that might make reading and completing a computer-based survey strenuous for you, you should probably elect to not participate in this study. If at any time during the study you feel unable to participate because you are experiencing strain, you may end your participation without penalty. We cannot and do not guarantee or promise that you will receive any benefits from this study. Your decision whether or not to participate in this study will not affect your employment, medical care, and/or grades in school. </p><p><b>Time involvement:</b> Your participation in this experiment will take  5 minutes. </p><p><b> Payment:</b> If recruitment materials indicate payment (e.g., Prolific or other recruitment), you will receive compensation as indicated. </p><p><b>Subject's rights:</b> If you have read this notice and have decided to participate in this project, please understand your participation is voluntary and you have the right to withdraw your consent or discontinue participation at any time without penalty or loss of benefits to which you are otherwise entitled. You have the right to refuse to answer particular questions. Your individual privacy will be maintained in all published and written data resulting from the study. </p><p><b>Contact information:</b> If you have any questions, concerns or complaints about this research study, its procedures, or risks and benefits, you should ask the Protocol Director, (Professor Tobias Gerstenberg, Phone: (650) 725-2431; Email: gerstenberg@stanford.edu). </p><p><b>Independent contact:</b> If you are not satisfied with how this study is being conducted, or if you have any concerns, complaints, or general questions about the research or your rights as a participant, please contact the Stanford Institutional Review Board (IRB) to speak to someone independent of the research team via email at irb2-manager@lists.stanford.edu, or via phone at (650) 723-2480 or toll free at 1-866-680-2906. You can also write to the Stanford IRB, Stanford University, 3000 El Camino Real, Five Palo Alto Square, 4th Floor, Palo Alto, CA 94306. </p><p>You may want to print a copy of this consent form to keep. By clicking the button below, you acknowledge that you have read the above information, that you are 18 years of age, or older and give your consent to participate in our internet-based study and consent for us to analyze the resulting data. </p> </div><p> Do you agree with the terms of the experiment as explained above? </p>",,,9798,,,2,html-button-response,,
1149,1_cube_black,,,,,,,1,,,,,,,,,,,,0.0-3.0-0.0,,,,,15048,,,,,24847,,instructions_pt1,3,instructions,"[{'page_index': 0, 'viewing_time': 2072}, {'page_index': 1, 'viewing_time': 1929}, {'page_index': 2, 'viewing_time': 1430}, {'page_index': 3, 'viewing_time': 814}, {'page_index': 4, 'viewing_time': 2058}, {'page_index': 5, 'viewing_time': 2810}, {'page_index': 6, 'viewing_time': 2899}, {'page_index': 7, 'viewing_time': 1036}]",
1149,1_cube_black,True,,,,,,1,,0,,,,,,,,,,0.0-3.0-1.0-0.0,,,,0,2429,,"<p> In this experiment, you will receive a bonus payment proportional to _________.</p>",,,27277,,comprehension_quiz,4,html-button-response,,
1149,1_cube_black,True,,,,,,1,,1,,,,,,,,,,0.0-3.0-1.0-1.0,,,,1,1467,,You will be asked to predict whether objects _________.,,,28745,,comprehension_quiz,5,html-button-response,,
1149,1_cube_black,,,,,,,1,,,,,,,,,,,,0.0-4.0,,,,0,774,,The experiment will now begin,,,29520,,,6,html-button-response,,
1149,1_cube_black,,0,,,,,1,False,No,False,,0,,,,,,,0.0-5.0-0.0,,,,Yes,1849,,stimuli/hr_hb_c_first.jpg,,,31370,,prediction_trial,7,image-button-response,,
1149,1_cube_black,,,,,,,1,False,,,,,,,,,,,0.0-5.0-1.0,,,,,,,['stimuli/hr_hb_c.mp4'],,,37996,,video_trial,8,video-button-response,,
1149,1_cube_black,,,,,,,1,,,,,,,,,,,,0.0-5.0-2.0,,,,0,705,,stimuli/hr_hb_c_last.jpg,,,38702,,feedback_trial,9,image-button-response,,
1149,1_cube_black,,1,,,,,1,True,Yes,True,,3,,,,,,,0.0-6.0-0.0,,,,Yes,587,,stimuli/lb_ly_c_first.jpg,,,39291,,prediction_trial,10,image-button-response,,
1149,1_cube_black,,,,,,,1,True,,,,,,,,,,,0.0-6.0-1.0,,,,,,,['stimuli/lb_ly_c.mp4'],,,47596,,video_trial,11,video-button-response,,
1149,1_cube_black,,,,,,,1,,,,,,,,,,,,0.0-6.0-2.0,,,,0,843,,stimuli/lb_ly_c_last.jpg,,,48440,,feedback_trial,12,image-button-response,,
1149,1_cube_black,,1,,,,,1,True,Yes,True,,2,,,,,,,0.0-7.0-0.0,,,,Yes,564,,stimuli/lb_hb_c_first.jpg,,,49004,,prediction_trial,13,image-button-response,,
1149,1_cube_black,,,,,,,1,True,,,,,,,,,,,0.0-7.0-1.0,,,,,,,['stimuli/lb_hb_c.mp4'],,,57078,,video_trial,14,video-button-response,,
1149,1_cube_black,,,,,,,1,,,,,,,,,,,,0.0-7.0-2.0,,,,0,805,,stimuli/lb_hb_c_last.jpg,,,57886,,feedback_trial,15,image-button-response,,
1149,1_cube_black,,1,,,,,1,True,No,False,,0,,,,,,,0.0-8.0-0.0,,,,No,519,,stimuli/hr_hb_c_first.jpg,,,58406,,prediction_trial,16,image-button-response,,
1149,1_cube_black,,,,,,,1,True,,,,,,,,,,,0.0-8.0-1.0,,,,,,,['stimuli/hr_hb_c.mp4'],,,65012,,video_trial,17,video-button-response,,
1149,1_cube_black,,,,,,,1,,,,,,,,,,,,0.0-8.0-2.0,,,,0,3698,,stimuli/hr_hb_c_last.jpg,,,68712,,feedback_trial,18,image-button-response,,
1149,1_cube_black,,1,,,,,1,True,No,False,,1,,,,,,,0.0-9.0-0.0,,,,No,486,,stimuli/hr_ly_c_first.jpg,,,69199,,prediction_trial,19,image-button-response,,
1149,1_cube_black,,,,,,,1,True,,,,,,,,,,,0.0-9.0-1.0,,,,,,,['stimuli/hr_ly_c.mp4'],,,76578,,video_trial,20,video-button-response,,
1149,1_cube_black,,,,,,,1,,,,,,,,,,,,0.0-9.0-2.0,,,,0,703,,stimuli/hr_ly_c_last.jpg,,,77282,,feedback_trial,21,image-button-response,,
1149,1_cube_black,,1,,,,,1,True,Yes,True,,3,,,,,,,0.0-10.0-0.0,,,,Yes,743,,stimuli/lb_ly_c_first.jpg,,,78026,,prediction_trial,22,image-button-response,,
1149,1_cube_black,,,,,,,1,True,,,,,,,,,,,0.0-10.0-1.0,,,,,,,['stimuli/lb_ly_c.mp4'],,,86328,,video_trial,23,video-button-response,,
1149,1_cube_black,,,,,,,1,,,,,,,,,,,,0.0-10.0-2.0,,,,0,758,,stimuli/lb_ly_c_last.jpg,,,87088,,feedback_trial,24,image-button-response,,
1149,1_cube_black,,1,,,,,1,True,No,False,,1,,,,,,,0.0-11.0-0.0,,,,No,993,,stimuli/hr_ly_c_first.jpg,,,88082,,prediction_trial,25,image-button-response,,
1149,1_cube_black,,,,,,,1,True,,,,,,,,,,,0.0-11.0-1.0,,,,,,,['stimuli/hr_ly_c.mp4'],,,95462,,video_trial,26,video-button-response,,
1149,1_cube_black,,,,,,,1,,,,,,,,,,,,0.0-11.0-2.0,,,,0,2611,,stimuli/hr_ly_c_last.jpg,,,98073,,feedback_trial,27,image-button-response,,
1149,1_cube_black,,0,,,,,1,False,No,False,,0,,,,,,,0.0-12.0-0.0,,,,Yes,1170,,stimuli/hr_hb_c_first.jpg,,,99245,,prediction_trial,28,image-button-response,,
1149,1_cube_black,,,,,,,1,False,,,,,,,,,,,0.0-12.0-1.0,,,,,,,['stimuli/hr_hb_c.mp4'],,,105845,,video_trial,29,video-button-response,,
1149,1_cube_black,,,,,,,1,,,,,,,,,,,,0.0-12.0-2.0,,,,0,3287,,stimuli/hr_hb_c_last.jpg,,,109134,,feedback_trial,30,image-button-response,,
1149,1_cube_black,,0,,,,,1,False,No,False,,1,,,,,,,0.0-13.0-0.0,,,,Yes,1032,,stimuli/hr_ly_c_first.jpg,,,110167,,prediction_trial,31,image-button-response,,
1149,1_cube_black,,,,,,,1,False,,,,,,,,,,,0.0-13.0-1.0,,,,,,,['stimuli/hr_ly_c.mp4'],,,117546,,video_trial,32,video-button-response,,
1149,1_cube_black,,,,,,,1,,,,,,,,,,,,0.0-13.0-2.0,,,,0,639,,stimuli/hr_ly_c_last.jpg,,,118186,,feedback_trial,33,image-button-response,,
1149,1_cube_black,,1,,,,,1,True,Yes,True,,2,,,,,,,0.0-14.0-0.0,,,,Yes,792,,stimuli/lb_hb_c_first.jpg,,,118979,,prediction_trial,34,image-button-response,,
1149,1_cube_black,,,,,,,1,True,,,,,,,,,,,0.0-14.0-1.0,,,,,,,['stimuli/lb_hb_c.mp4'],,,127046,,video_trial,35,video-button-response,,
1149,1_cube_black,,,,,,,1,,,,,,,,,,,,0.0-14.0-2.0,,,,0,1123,,stimuli/lb_hb_c_last.jpg,,,128170,,feedback_trial,36,image-button-response,,
1149,1_cube_black,,0,,,,,1,False,No,False,,0,,,,,,,0.0-15.0-0.0,,,,Yes,1007,,stimuli/hr_hb_c_first.jpg,,,129178,,prediction_trial,37,image-button-response,,
1149,1_cube_black,,,,,,,1,False,,,,,,,,,,,0.0-15.0-1.0,,,,,,,['stimuli/hr_hb_c.mp4'],,,135797,,video_trial,38,video-button-response,,
1149,1_cube_black,,,,,,,1,,,,,,,,,,,,0.0-15.0-2.0,,,,0,2382,,stimuli/hr_hb_c_last.jpg,,,138180,,feedback_trial,39,image-button-response,,
1149,1_cube_black,,1,,,,,1,True,Yes,True,,3,,,,,,,0.0-16.0-0.0,,,,Yes,1329,,stimuli/lb_ly_c_first.jpg,,,139510,,prediction_trial,40,image-button-response,,
1149,1_cube_black,,,,,,,1,True,,,,,,,,,,,0.0-16.0-1.0,,,,,,,['stimuli/lb_ly_c.mp4'],,,147813,,video_trial,41,video-button-response,,
1149,1_cube_black,,,,,,,1,,,,,,,,,,,,0.0-16.0-2.0,,,,0,4662,,stimuli/lb_ly_c_last.jpg,,,152476,,feedback_trial,42,image-button-response,,
1149,1_cube_black,,0,,,,,1,False,Yes,True,,2,,,,,,,0.0-17.0-0.0,,,,No,1075,,stimuli/lb_hb_c_first.jpg,,,153551,,prediction_trial,43,image-button-response,,
1149,1_cube_black,,,,,,,1,False,,,,,,,,,,,0.0-17.0-1.0,,,,,,,['stimuli/lb_hb_c.mp4'],,,161629,,video_trial,44,video-button-response,,
1149,1_cube_black,,,,,,,1,,,,,,,,,,,,0.0-17.0-2.0,,,,0,789,,stimuli/lb_hb_c_last.jpg,,,162420,,feedback_trial,45,image-button-response,,
1149,1_cube_black,,0,,,,,1,False,Yes,True,,3,,,,,,,0.0-18.0-0.0,,,,No,1294,,stimuli/lb_ly_c_first.jpg,,,163715,,prediction_trial,46,image-button-response,,
1149,1_cube_black,,,,,,,1,False,,,,,,,,,,,0.0-18.0-1.0,,,,,,,['stimuli/lb_ly_c.mp4'],,,172013,,video_trial,47,video-button-response,,
1149,1_cube_black,,,,,,,1,,,,,,,,,,,,0.0-18.0-2.0,,,,0,642,,stimuli/lb_ly_c_last.jpg,,,172656,,feedback_trial,48,image-button-response,,
1149,1_cube_black,,0,,,,,1,False,Yes,True,,2,,,,,,,0.0-19.0-0.0,,,,No,447,,stimuli/lb_hb_c_first.jpg,,,173104,,prediction_trial,49,image-button-response,,
1149,1_cube_black,,,,,,,1,False,,,,,,,,,,,0.0-19.0-1.0,,,,,,,['stimuli/lb_hb_c.mp4'],,,181180,,video_trial,50,video-button-response,,
1149,1_cube_black,,,,,,,1,,,,,,,,,,,,0.0-19.0-2.0,,,,0,6724,,stimuli/lb_hb_c_last.jpg,,,187905,,feedback_trial,51,image-button-response,,
1149,1_cube_black,,1,,,,,1,True,No,False,,1,,,,,,,0.0-20.0-0.0,,,,No,1860,,stimuli/hr_ly_c_first.jpg,,,189766,,prediction_trial,52,image-button-response,,
1149,1_cube_black,,,,,,,1,True,,,,,,,,,,,0.0-20.0-1.0,,,,,,,['stimuli/hr_ly_c.mp4'],,,197147,,video_trial,53,video-button-response,,
1149,1_cube_black,,,,,,,1,,,,,,,,,,,,0.0-20.0-2.0,,,,0,3864,,stimuli/hr_ly_c_last.jpg,,,201012,,feedback_trial,54,image-button-response,,
1149,1_cube_black,,,,,,,1,,,,,,,,,,,,0.0-21.0,,,,0,1504,," <p> Now we will ask you to make some different predictions.</p> <p>This time, we'll ask you to select one of four images that correctly shows where the block will end up.</p>",,,202517,,surprise_quiz_instructions,55,html-button-response,,
1149,1_cube_black,False,,False,,,"['<br><img src=stimuli/b_y_0.jpg style=width:307.2px></img', '<br><img src=stimuli/b_y_1.jpg style=width:307.2px></img', '<br><img src=stimuli/b_y_2.jpg style=width:307.2px></img', '<br><img src=stimuli/b_y_3.jpg style=width:307.2px></img']",1,,,,3,,,,,,,,0.0-22.0,,[0],,<br><img src=stimuli/b_y_1.jpg style=width:307.2px></img,6846,1,,,lb_ly_c,209365,,surprise_quiz,56,survey-multi-choice,,
1149,1_cube_black,True,,True,,,"['<br><img src=stimuli/b_b_0.jpg style=width:307.2px></img', '<br><img src=stimuli/b_b_1.jpg style=width:307.2px></img', '<br><img src=stimuli/b_b_2.jpg style=width:307.2px></img', '<br><img src=stimuli/b_b_3.jpg style=width:307.2px></img']",1,,,,2,,,,,,,,0.0-23.0,,[0],,<br><img src=stimuli/b_b_2.jpg style=width:307.2px></img,3086,2,,,lb_hb_c,212453,,surprise_quiz,57,survey-multi-choice,,
1149,1_cube_black,True,,True,,,"['<br><img src=stimuli/r_b_0.jpg style=width:307.2px></img', '<br><img src=stimuli/r_b_1.jpg style=width:307.2px></img', '<br><img src=stimuli/r_b_2.jpg style=width:307.2px></img', '<br><img src=stimuli/r_b_3.jpg style=width:307.2px></img']",1,,,,0,,,,,,,,0.0-24.0,,[0],,<br><img src=stimuli/r_b_0.jpg style=width:307.2px></img,3899,0,,,hr_hb_c,216354,,surprise_quiz,58,survey-multi-choice,,
1149,1_cube_black,False,,False,,,"['<br><img src=stimuli/r_y_0.jpg style=width:307.2px></img', '<br><img src=stimuli/r_y_1.jpg style=width:307.2px></img', '<br><img src=stimuli/r_y_2.jpg style=width:307.2px></img', '<br><img src=stimuli/r_y_3.jpg style=width:307.2px></img']",1,,,,1,,,,,,,,0.0-25.0,,[0],,<br><img src=stimuli/r_y_3.jpg style=width:307.2px></img,11401,3,,,hr_ly_c,227758,,surprise_quiz,59,survey-multi-choice,,
1149,1_cube_black,,,,,,,1,,,,,,,,,,,,0.0-26.0,,,,0,2270,,"<p>Thank you for participating!</p>You answered 9 out of 16 trials correctly, and will receive a $0.27 bonus.<p>Now you will complete a short survey before finishing the experiment.</p>",,,230031,,,60,html-button-response,,
1149,1_cube_black,,,,28,0.27,,1,,,,,,Non-Hispanic,,,,,Male,0.0-27.0,0.5625,,White,"{'age': '28', 'race': 'White', 'gender': 'Male', 'feedback': '', 'ethnicity': 'Non-Hispanic', 'other_race': '', 'other_gender': ''}",8262,,,,,238294,,exit_survey,61,survey-html-form,,
1202,1_cube_black,,,,,,,1,,,,,,,[],[],[],,,0.0-0.0,,,,,,,,True,,19453,False,,0,preload,,
1202,1_cube_black,,,,,,,1,,,,,,,,,,,,0.0-1.0,,,,,,,,True,,23193,,,1,fullscreen,,
1202,1_cube_black,,,,,,,1,,,,,,,,,,,,0.0-2.0,,,,0,11373,,"<p><b>Consent Form</b></p> <div style=""text-align:left;background-color:lightblue; padding:20px; max-width:900px;""><p><b>Description:</b> Welcome! You are invited to participate in a research study in cognitive psychology. You will be asked to perform various tasks on a computer which may include: looking at images or videos, listening to sounds, reading scenarios, or playing games. You may be asked a number of different questions about making judgments and intepreting people's actions. All information collected will remain confidential. </p> <p> <b>Risks and benefits:</b> Risks involved in this study are the same as those normally associated with using a computer (e.g., mild eye/arm strain). If you have any pre- existing conditions that might make reading and completing a computer-based survey strenuous for you, you should probably elect to not participate in this study. If at any time during the study you feel unable to participate because you are experiencing strain, you may end your participation without penalty. We cannot and do not guarantee or promise that you will receive any benefits from this study. Your decision whether or not to participate in this study will not affect your employment, medical care, and/or grades in school. </p><p><b>Time involvement:</b> Your participation in this experiment will take  5 minutes. </p><p><b> Payment:</b> If recruitment materials indicate payment (e.g., Prolific or other recruitment), you will receive compensation as indicated. </p><p><b>Subject's rights:</b> If you have read this notice and have decided to participate in this project, please understand your participation is voluntary and you have the right to withdraw your consent or discontinue participation at any time without penalty or loss of benefits to which you are otherwise entitled. You have the right to refuse to answer particular questions. Your individual privacy will be maintained in all published and written data resulting from the study. </p><p><b>Contact information:</b> If you have any questions, concerns or complaints about this research study, its procedures, or risks and benefits, you should ask the Protocol Director, (Professor Tobias Gerstenberg, Phone: (650) 725-2431; Email: gerstenberg@stanford.edu). </p><p><b>Independent contact:</b> If you are not satisfied with how this study is being conducted, or if you have any concerns, complaints, or general questions about the research or your rights as a participant, please contact the Stanford Institutional Review Board (IRB) to speak to someone independent of the research team via email at irb2-manager@lists.stanford.edu, or via phone at (650) 723-2480 or toll free at 1-866-680-2906. You can also write to the Stanford IRB, Stanford University, 3000 El Camino Real, Five Palo Alto Square, 4th Floor, Palo Alto, CA 94306. </p><p>You may want to print a copy of this consent form to keep. By clicking the button below, you acknowledge that you have read the above information, that you are 18 years of age, or older and give your consent to participate in our internet-based study and consent for us to analyze the resulting data. </p> </div><p> Do you agree with the terms of the experiment as explained above? </p>",,,34574,,,2,html-button-response,,
1202,1_cube_black,,,,,,,1,,,,,,,,,,,,0.0-3.0-0.0,,,,,34232,,,,,68808,,instructions_pt1,3,instructions,"[{'page_index': 0, 'viewing_time': 5359}, {'page_index': 1, 'viewing_time': 7489}, {'page_index': 2, 'viewing_time': 3019}, {'page_index': 3, 'viewing_time': 2385}, {'page_index': 4, 'viewing_time': 5250}, {'page_index': 5, 'viewing_time': 4385}, {'page_index': 6, 'viewing_time': 4210}, {'page_index': 7, 'viewing_time': 2134}]",
1202,1_cube_black,True,,,,,,1,,0,,,,,,,,,,0.0-3.0-1.0-0.0,,,,0,5174,,"<p> In this experiment, you will receive a bonus payment proportional to _________.</p>",,,73985,,comprehension_quiz,4,html-button-response,,
1202,1_cube_black,True,,,,,,1,,1,,,,,,,,,,0.0-3.0-1.0-1.0,,,,1,2653,,You will be asked to predict whether objects _________.,,,76641,,comprehension_quiz,5,html-button-response,,
1202,1_cube_black,,,,,,,1,,,,,,,,,,,,0.0-4.0,,,,0,1357,,The experiment will now begin,,,78004,,,6,html-button-response,,
1202,1_cube_black,,0,,,,,1,False,No,False,,0,,,,,,,0.0-5.0-0.0,,,,Yes,3332,,stimuli/hr_hb_c_first.jpg,,,81354,,prediction_trial,7,image-button-response,,
1202,1_cube_black,,,,,,,1,False,,,,,,,,,,,0.0-5.0-1.0,,,,,,,['stimuli/hr_hb_c.mp4'],,,88117,,video_trial,8,video-button-response,,
1202,1_cube_black,,,,,,,1,,,,,,,,,,,,0.0-5.0-2.0,,,,0,6271,,stimuli/hr_hb_c_last.jpg,,,94391,,feedback_trial,9,image-button-response,,
1202,1_cube_black,,0,,,,,1,False,Yes,True,,2,,,,,,,0.0-6.0-0.0,,,,No,3564,,stimuli/lb_hb_c_first.jpg,,,97960,,prediction_trial,10,image-button-response,,
1202,1_cube_black,,,,,,,1,False,,,,,,,,,,,0.0-6.0-1.0,,,,,,,['stimuli/lb_hb_c.mp4'],,,106128,,video_trial,11,video-button-response,,
1202,1_cube_black,,,,,,,1,,,,,,,,,,,,0.0-6.0-2.0,,,,0,1223,,stimuli/lb_hb_c_last.jpg,,,107353,,feedback_trial,12,image-button-response,,
1202,1_cube_black,,1,,,,,1,True,Yes,True,,3,,,,,,,0.0-7.0-0.0,,,,Yes,2181,,stimuli/lb_ly_c_first.jpg,,,109538,,prediction_trial,13,image-button-response,,
1202,1_cube_black,,,,,,,1,True,,,,,,,,,,,0.0-7.0-1.0,,,,,,,['stimuli/lb_ly_c.mp4'],,,117913,,video_trial,14,video-button-response,,
1202,1_cube_black,,,,,,,1,,,,,,,,,,,,0.0-7.0-2.0,,,,0,3574,,stimuli/lb_ly_c_last.jpg,,,121489,,feedback_trial,15,image-button-response,,
1202,1_cube_black,,1,,,,,1,True,Yes,True,,2,,,,,,,0.0-8.0-0.0,,,,Yes,3059,,stimuli/lb_hb_c_first.jpg,,,124552,,prediction_trial,16,image-button-response,,
1202,1_cube_black,,,,,,,1,True,,,,,,,,,,,0.0-8.0-1.0,,,,,,,['stimuli/lb_hb_c.mp4'],,,132693,,video_trial,17,video-button-response,,
1202,1_cube_black,,,,,,,1,,,,,,,,,,,,0.0-8.0-2.0,,,,0,1523,,stimuli/lb_hb_c_last.jpg,,,134217,,feedback_trial,18,image-button-response,,
1202,1_cube_black,,1,,,,,1,True,Yes,True,,3,,,,,,,0.0-9.0-0.0,,,,Yes,1815,,stimuli/lb_ly_c_first.jpg,,,136035,,prediction_trial,19,image-button-response,,
1202,1_cube_black,,,,,,,1,True,,,,,,,,,,,0.0-9.0-1.0,,,,,,,['stimuli/lb_ly_c.mp4'],,,144406,,video_trial,20,video-button-response,,
1202,1_cube_black,,,,,,,1,,,,,,,,,,,,0.0-9.0-2.0,,,,0,1171,,stimuli/lb_ly_c_last.jpg,,,145578,,feedback_trial,21,image-button-response,,
1202,1_cube_black,,1,,,,,1,True,No,False,,0,,,,,,,0.0-10.0-0.0,,,,No,1979,,stimuli/hr_hb_c_first.jpg,,,147568,,prediction_trial,22,image-button-response,,
1202,1_cube_black,,,,,,,1,True,,,,,,,,,,,0.0-10.0-1.0,,,,,,,['stimuli/hr_hb_c.mp4'],,,154271,,video_trial,23,video-button-response,,
1202,1_cube_black,,,,,,,1,,,,,,,,,,,,0.0-10.0-2.0,,,,0,1063,,stimuli/hr_hb_c_last.jpg,,,155336,,feedback_trial,24,image-button-response,,
1202,1_cube_black,,1,,,,,1,True,No,False,,1,,,,,,,0.0-11.0-0.0,,,,No,2056,,stimuli/hr_ly_c_first.jpg,,,157395,,prediction_trial,25,image-button-response,,
1202,1_cube_black,,,,,,,1,True,,,,,,,,,,,0.0-11.0-1.0,,,,,,,['stimuli/hr_ly_c.mp4'],,,164836,,video_trial,26,video-button-response,,
1202,1_cube_black,,,,,,,1,,,,,,,,,,,,0.0-11.0-2.0,,,,0,1127,,stimuli/hr_ly_c_last.jpg,,,165965,,feedback_trial,27,image-button-response,,
1202,1_cube_black,,1,,,,,1,True,Yes,True,,3,,,,,,,0.0-12.0-0.0,,,,Yes,1940,,stimuli/lb_ly_c_first.jpg,,,167907,,prediction_trial,28,image-button-response,,
1202,1_cube_black,,,,,,,1,True,,,,,,,,,,,0.0-12.0-1.0,,,,,,,['stimuli/lb_ly_c.mp4'],,,176284,,video_trial,29,video-button-response,,
1202,1_cube_black,,,,,,,1,,,,,,,,,,,,0.0-12.0-2.0,,,,0,1305,,stimuli/lb_ly_c_last.jpg,,,177601,,feedback_trial,30,image-button-response,,
1202,1_cube_black,,1,,,,,1,True,Yes,True,,2,,,,,,,0.0-13.0-0.0,,,,Yes,1605,,stimuli/lb_hb_c_first.jpg,,,179228,,prediction_trial,31,image-button-response,,
1202,1_cube_black,,,,,,,1,True,,,,,,,,,,,0.0-13.0-1.0,,,,,,,['stimuli/lb_hb_c.mp4'],,,187419,,video_trial,32,video-button-response,,
1202,1_cube_black,,,,,,,1,,,,,,,,,,,,0.0-13.0-2.0,,,,0,1301,,stimuli/lb_hb_c_last.jpg,,,188722,,feedback_trial,33,image-button-response,,
1202,1_cube_black,,1,,,,,1,True,No,False,,0,,,,,,,0.0-14.0-0.0,,,,No,1585,,stimuli/hr_hb_c_first.jpg,,,190315,,prediction_trial,34,image-button-response,,
1202,1_cube_black,,,,,,,1,True,,,,,,,,,,,0.0-14.0-1.0,,,,,,,['stimuli/hr_hb_c.mp4'],,,196966,,video_trial,35,video-button-response,,
1202,1_cube_black,,,,,,,1,,,,,,,,,,,,0.0-14.0-2.0,,,,0,1160,,stimuli/hr_hb_c_last.jpg,,,198128,,feedback_trial,36,image-button-response,,
1202,1_cube_black,,1,,,,,1,True,No,False,,1,,,,,,,0.0-15.0-0.0,,,,No,1649,,stimuli/hr_ly_c_first.jpg,,,199779,,prediction_trial,37,image-button-response,,
1202,1_cube_black,,,,,,,1,True,,,,,,,,,,,0.0-15.0-1.0,,,,,,,['stimuli/hr_ly_c.mp4'],,,207181,,video_trial,38,video-button-response,,
1202,1_cube_black,,,,,,,1,,,,,,,,,,,,0.0-15.0-2.0,,,,0,1090,,stimuli/hr_ly_c_last.jpg,,,208272,,feedback_trial,39,image-button-response,,
1202,1_cube_black,,1,,,,,1,True,No,False,,0,,,,,,,0.0-16.0-0.0,,,,No,1592,,stimuli/hr_hb_c_first.jpg,,,209868,,prediction_trial,40,image-button-response,,
1202,1_cube_black,,,,,,,1,True,,,,,,,,,,,0.0-16.0-1.0,,,,,,,['stimuli/hr_hb_c.mp4'],,,216516,,video_trial,41,video-button-response,,
1202,1_cube_black,,,,,,,1,,,,,,,,,,,,0.0-16.0-2.0,,,,0,1083,,stimuli/hr_hb_c_last.jpg,,,217601,,feedback_trial,42,image-button-response,,
1202,1_cube_black,,1,,,,,1,True,No,False,,1,,,,,,,0.0-17.0-0.0,,,,No,1813,,stimuli/hr_ly_c_first.jpg,,,219419,,prediction_trial,43,image-button-response,,
1202,1_cube_black,,,,,,,1,True,,,,,,,,,,,0.0-17.0-1.0,,,,,,,['stimuli/hr_ly_c.mp4'],,,226812,,video_trial,44,video-button-response,,
1202,1_cube_black,,,,,,,1,,,,,,,,,,,,0.0-17.0-2.0,,,,0,1753,,stimuli/hr_ly_c_last.jpg,,,228567,,feedback_trial,45,image-button-response,,
1202,1_cube_black,,1,,,,,1,True,Yes,True,,2,,,,,,,0.0-18.0-0.0,,,,Yes,1421,,stimuli/lb_hb_c_first.jpg,,,229996,,prediction_trial,46,image-button-response,,
1202,1_cube_black,,,,,,,1,True,,,,,,,,,,,0.0-18.0-1.0,,,,,,,['stimuli/lb_hb_c.mp4'],,,238094,,video_trial,47,video-button-response,,
1202,1_cube_black,,,,,,,1,,,,,,,,,,,,0.0-18.0-2.0,,,,0,1048,,stimuli/lb_hb_c_last.jpg,,,239143,,feedback_trial,48,image-button-response,,
1202,1_cube_black,,1,,,,,1,True,No,False,,1,,,,,,,0.0-19.0-0.0,,,,No,1562,,stimuli/hr_ly_c_first.jpg,,,240709,,prediction_trial,49,image-button-response,,
1202,1_cube_black,,,,,,,1,True,,,,,,,,,,,0.0-19.0-1.0,,,,,,,['stimuli/hr_ly_c.mp4'],,,248109,,video_trial,50,video-button-response,,
1202,1_cube_black,,,,,,,1,,,,,,,,,,,,0.0-19.0-2.0,,,,0,1242,,stimuli/hr_ly_c_last.jpg,,,249352,,feedback_trial,51,image-button-response,,
1202,1_cube_black,,1,,,,,1,True,Yes,True,,3,,,,,,,0.0-20.0-0.0,,,,Yes,1444,,stimuli/lb_ly_c_first.jpg,,,250799,,prediction_trial,52,image-button-response,,
1202,1_cube_black,,,,,,,1,True,,,,,,,,,,,0.0-20.0-1.0,,,,,,,['stimuli/lb_ly_c.mp4'],,,259141,,video_trial,53,video-button-response,,
1202,1_cube_black,,,,,,,1,,,,,,,,,,,,0.0-20.0-2.0,,,,0,1129,,stimuli/lb_ly_c_last.jpg,,,260272,,feedback_trial,54,image-button-response,,
1202,1_cube_black,,,,,,,1,,,,,,,,,,,,0.0-21.0,,,,0,3243,," <p> Now we will ask you to make some different predictions.</p> <p>This time, we'll ask you to select one of four images that correctly shows where the block will end up.</p>",,,263519,,surprise_quiz_instructions,55,html-button-response,,
1202,1_cube_black,True,,True,,,"['<br><img src=stimuli/r_b_0.jpg style=width:274.2px></img', '<br><img src=stimuli/r_b_1.jpg style=width:274.2px></img', '<br><img src=stimuli/r_b_2.jpg style=width:274.2px></img', '<br><img src=stimuli/r_b_3.jpg style=width:274.2px></img']",1,,,,0,,,,,,,,0.0-22.0,,[0],,<br><img src=stimuli/r_b_0.jpg style=width:274.2px></img,12233,0,,,hr_hb_c,275772,,surprise_quiz,56,survey-multi-choice,,
1202,1_cube_black,True,,True,,,"['<br><img src=stimuli/b_b_0.jpg style=width:274.2px></img', '<br><img src=stimuli/b_b_1.jpg style=width:274.2px></img', '<br><img src=stimuli/b_b_2.jpg style=width:274.2px></img', '<br><img src=stimuli/b_b_3.jpg style=width:274.2px></img']",1,,,,2,,,,,,,,0.0-23.0,,[0],,<br><img src=stimuli/b_b_2.jpg style=width:274.2px></img,6663,2,,,lb_hb_c,282443,,surprise_quiz,57,survey-multi-choice,,
1202,1_cube_black,True,,True,,,"['<br><img src=stimuli/b_y_0.jpg style=width:274.2px></img', '<br><img src=stimuli/b_y_1.jpg style=width:274.2px></img', '<br><img src=stimuli/b_y_2.jpg style=width:274.2px></img', '<br><img src=stimuli/b_y_3.jpg style=width:274.2px></img']",1,,,,3,,,,,,,,0.0-24.0,,[0],,<br><img src=stimuli/b_y_3.jpg style=width:274.2px></img,15652,3,,,lb_ly_c,298102,,surprise_quiz,58,survey-multi-choice,,
1202,1_cube_black,False,,True,,,"['<br><img src=stimuli/r_y_0.jpg style=width:274.2px></img', '<br><img src=stimuli/r_y_1.jpg style=width:274.2px></img', '<br><img src=stimuli/r_y_2.jpg style=width:274.2px></img', '<br><img src=stimuli/r_y_3.jpg style=width:274.2px></img']",1,,,,1,,,,,,,,0.0-25.0,,[0],,<br><img src=stimuli/r_y_0.jpg style=width:274.2px></img,9783,0,,,hr_ly_c,307891,,surprise_quiz,59,survey-multi-choice,,
1202,1_cube_black,,,,,,,1,,,,,,,,,,,,0.0-26.0,,,,0,3697,,"<p>Thank you for participating!</p>You answered 14 out of 16 trials correctly, and will receive a $0.42 bonus.<p>Now you will complete a short survey before finishing the experiment.</p>",,,311595,,,60,html-button-response,,
1202,1_cube_black,,,,63,0.42,,1,,,,,,Non-Hispanic,,,,color of block,Female,0.0-27.0,0.875,,White,"{'age': '63', 'race': 'White', 'gender': 'Female', 'feedback': 'color of block', 'ethnicity': 'Non-Hispanic', 'other_race': '', 'other_gender': ''}",24897,,,,,336496,,exit_survey,61,survey-html-form,,
1197,1_cube_black,,,,,,,1,,,,,,,[],[],[],,,0.0-0.0,,,,,,,,True,,3461,False,,0,preload,,
1197,1_cube_black,,,,,,,1,,,,,,,,,,,,0.0-1.0,,,,,,,,True,,8306,,,1,fullscreen,,
