workerid,proliferate.condition,accuracy,accuracy_bool,accuracy_finish_line,choices,condition,correct,correct_response,crosses,end_posision,end_position,internal_node_id,question_order,response,rt,selected_position,stimulus,surprise_setup,time_elapsed,trial,trial_index,trial_type,error
1577,3_ramp_blue,,0,,,3,False,No,False,,0,0.0-5.0-0.0,,Yes,2129,,stimuli/hb_hy_r_first.jpg,,26967,prediction_trial,7,image-button-response,
1577,3_ramp_blue,,1,,,3,True,Yes,True,,3,0.0-6.0-0.0,,Yes,2128,,stimuli/lr_lb_r_first.jpg,,37940,prediction_trial,10,image-button-response,
1577,3_ramp_blue,,0,,,3,False,No,False,,2,0.0-7.0-0.0,,Yes,1795,,stimuli/hb_lb_r_first.jpg,,48999,prediction_trial,13,image-button-response,
1577,3_ramp_blue,,0,,,3,False,No,False,,0,0.0-8.0-0.0,,Yes,1907,,stimuli/hb_hy_r_first.jpg,,59863,prediction_trial,16,image-button-response,
1577,3_ramp_blue,,1,,,3,True,Yes,True,,3,0.0-9.0-0.0,,Yes,1009,,stimuli/lr_lb_r_first.jpg,,72471,prediction_trial,19,image-button-response,
1577,3_ramp_blue,,0,,,3,False,No,False,,0,0.0-10.0-0.0,,Yes,2123,,stimuli/hb_hy_r_first.jpg,,83840,prediction_trial,22,image-button-response,
1577,3_ramp_blue,,0,,,3,False,No,False,,1,0.0-11.0-0.0,,Yes,1250,,stimuli/lr_hy_r_first.jpg,,93670,prediction_trial,25,image-button-response,
1577,3_ramp_blue,,0,,,3,False,No,False,,2,0.0-12.0-0.0,,Yes,2634,,stimuli/hb_lb_r_first.jpg,,104888,prediction_trial,28,image-button-response,
1577,3_ramp_blue,,1,,,3,True,Yes,True,,3,0.0-13.0-0.0,,Yes,1409,,stimuli/lr_lb_r_first.jpg,,115181,prediction_trial,31,image-button-response,
1577,3_ramp_blue,,0,,,3,False,No,False,,1,0.0-14.0-0.0,,Yes,1414,,stimuli/lr_hy_r_first.jpg,,125493,prediction_trial,34,image-button-response,
1577,3_ramp_blue,,1,,,3,True,No,False,,2,0.0-15.0-0.0,,No,1068,,stimuli/hb_lb_r_first.jpg,,134987,prediction_trial,37,image-button-response,
1577,3_ramp_blue,,0,,,3,False,No,False,,1,0.0-16.0-0.0,,Yes,2120,,stimuli/lr_hy_r_first.jpg,,145971,prediction_trial,40,image-button-response,
1577,3_ramp_blue,,0,,,3,False,Yes,True,,3,0.0-17.0-0.0,,No,856,,stimuli/lr_lb_r_first.jpg,,155310,prediction_trial,43,image-button-response,
1577,3_ramp_blue,,1,,,3,True,No,False,,0,0.0-18.0-0.0,,No,811,,stimuli/hb_hy_r_first.jpg,,164820,prediction_trial,46,image-button-response,
1577,3_ramp_blue,,1,,,3,True,No,False,,2,0.0-19.0-0.0,,No,1051,,stimuli/hb_lb_r_first.jpg,,174219,prediction_trial,49,image-button-response,
1577,3_ramp_blue,,1,,,3,True,No,False,,1,0.0-20.0-0.0,,No,1796,,stimuli/lr_hy_r_first.jpg,,184890,prediction_trial,52,image-button-response,
1577,3_ramp_blue,False,,False,"['<br><img src=stimuli/r_y_0.jpg style=width:307.2px></img', '<br><img src=stimuli/r_y_1.jpg style=width:307.2px></img', '<br><img src=stimuli/r_y_2.jpg style=width:307.2px></img', '<br><img src=stimuli/r_y_3.jpg style=width:307.2px></img']",3,,,,1,,0.0-22.0,[0],<br><img src=stimuli/r_y_2.jpg style=width:307.2px></img,5436,2,,lr_hy_r,200421,surprise_quiz,56,survey-multi-choice,
1577,3_ramp_blue,False,,False,"['<br><img src=stimuli/b_y_0.jpg style=width:307.2px></img', '<br><img src=stimuli/b_y_1.jpg style=width:307.2px></img', '<br><img src=stimuli/b_y_2.jpg style=width:307.2px></img', '<br><img src=stimuli/b_y_3.jpg style=width:307.2px></img']",3,,,,0,,0.0-23.0,[0],<br><img src=stimuli/b_y_2.jpg style=width:307.2px></img,2517,2,,hb_hy_r,202942,surprise_quiz,57,survey-multi-choice,
1577,3_ramp_blue,True,,True,"['<br><img src=stimuli/r_b_0.jpg style=width:307.2px></img', '<br><img src=stimuli/r_b_1.jpg style=width:307.2px></img', '<br><img src=stimuli/r_b_2.jpg style=width:307.2px></img', '<br><img src=stimuli/r_b_3.jpg style=width:307.2px></img']",3,,,,3,,0.0-24.0,[0],<br><img src=stimuli/r_b_3.jpg style=width:307.2px></img,3407,3,,lr_lb_r,206353,surprise_quiz,58,survey-multi-choice,
1577,3_ramp_blue,True,,False,"['<br><img src=stimuli/b_b_0.jpg style=width:307.2px></img', '<br><img src=stimuli/b_b_1.jpg style=width:307.2px></img', '<br><img src=stimuli/b_b_2.jpg style=width:307.2px></img', '<br><img src=stimuli/b_b_3.jpg style=width:307.2px></img']",3,,,,2,,0.0-25.0,[0],<br><img src=stimuli/b_b_2.jpg style=width:307.2px></img,1585,2,,hb_lb_r,207942,surprise_quiz,59,survey-multi-choice,
1605,3_ramp_blue,,0,,,3,False,No,False,,1,0.0-5.0-0.0,,Yes,9981,,stimuli/lr_hy_r_first.jpg,,47442,prediction_trial,7,image-button-response,
1605,3_ramp_blue,,0,,,3,False,Yes,True,,3,0.0-6.0-0.0,,No,8339,,stimuli/lr_lb_r_first.jpg,,65178,prediction_trial,10,image-button-response,
1605,3_ramp_blue,,0,,,3,False,No,False,,0,0.0-7.0-0.0,,Yes,2354,,stimuli/hb_hy_r_first.jpg,,76513,prediction_trial,13,image-button-response,
1605,3_ramp_blue,,0,,,3,False,No,False,,2,0.0-8.0-0.0,,Yes,1882,,stimuli/hb_lb_r_first.jpg,,87074,prediction_trial,16,image-button-response,
1605,3_ramp_blue,,1,,,3,True,Yes,True,,3,0.0-9.0-0.0,,Yes,2287,,stimuli/lr_lb_r_first.jpg,,98674,prediction_trial,19,image-button-response,
1605,3_ramp_blue,,1,,,3,True,No,False,,2,0.0-10.0-0.0,,No,1631,,stimuli/hb_lb_r_first.jpg,,109092,prediction_trial,22,image-button-response,
1605,3_ramp_blue,,1,,,3,True,No,False,,1,0.0-11.0-0.0,,No,9065,,stimuli/lr_hy_r_first.jpg,,126892,prediction_trial,25,image-button-response,
1605,3_ramp_blue,,1,,,3,True,No,False,,2,0.0-12.0-0.0,,No,3273,,stimuli/hb_lb_r_first.jpg,,138844,prediction_trial,28,image-button-response,
1605,3_ramp_blue,,1,,,3,True,Yes,True,,3,0.0-13.0-0.0,,Yes,2397,,stimuli/lr_lb_r_first.jpg,,150027,prediction_trial,31,image-button-response,
1605,3_ramp_blue,,1,,,3,True,No,False,,0,0.0-14.0-0.0,,No,1762,,stimuli/hb_hy_r_first.jpg,,160806,prediction_trial,34,image-button-response,
1605,3_ramp_blue,,1,,,3,True,Yes,True,,3,0.0-15.0-0.0,,Yes,3227,,stimuli/lr_lb_r_first.jpg,,172377,prediction_trial,37,image-button-response,
1605,3_ramp_blue,,1,,,3,True,No,False,,0,0.0-16.0-0.0,,No,1544,,stimuli/hb_hy_r_first.jpg,,183115,prediction_trial,40,image-button-response,
1605,3_ramp_blue,,1,,,3,True,No,False,,2,0.0-17.0-0.0,,No,1743,,stimuli/hb_lb_r_first.jpg,,193172,prediction_trial,43,image-button-response,
1605,3_ramp_blue,,0,,,3,False,No,False,,1,0.0-18.0-0.0,,Yes,2598,,stimuli/lr_hy_r_first.jpg,,204850,prediction_trial,46,image-button-response,
1605,3_ramp_blue,,1,,,3,True,No,False,,0,0.0-19.0-0.0,,No,1559,,stimuli/hb_hy_r_first.jpg,,215324,prediction_trial,49,image-button-response,
1605,3_ramp_blue,,0,,,3,False,No,False,,1,0.0-20.0-0.0,,Yes,1837,,stimuli/lr_hy_r_first.jpg,,225410,prediction_trial,52,image-button-response,
1605,3_ramp_blue,True,,True,"['<br><img src=stimuli/r_b_0.jpg style=width:358.4px></img', '<br><img src=stimuli/r_b_1.jpg style=width:358.4px></img', '<br><img src=stimuli/r_b_2.jpg style=width:358.4px></img', '<br><img src=stimuli/r_b_3.jpg style=width:358.4px></img']",3,,,,3,,0.0-22.0,[0],<br><img src=stimuli/r_b_3.jpg style=width:358.4px></img,9645,3,,lr_lb_r,245085,surprise_quiz,56,survey-multi-choice,
1605,3_ramp_blue,True,,False,"['<br><img src=stimuli/b_b_0.jpg style=width:358.4px></img', '<br><img src=stimuli/b_b_1.jpg style=width:358.4px></img', '<br><img src=stimuli/b_b_2.jpg style=width:358.4px></img', '<br><img src=stimuli/b_b_3.jpg style=width:358.4px></img']",3,,,,2,,0.0-23.0,[0],<br><img src=stimuli/b_b_2.jpg style=width:358.4px></img,10189,2,,hb_lb_r,255276,surprise_quiz,57,survey-multi-choice,
1605,3_ramp_blue,False,,False,"['<br><img src=stimuli/b_y_0.jpg style=width:358.4px></img', '<br><img src=stimuli/b_y_1.jpg style=width:358.4px></img', '<br><img src=stimuli/b_y_2.jpg style=width:358.4px></img', '<br><img src=stimuli/b_y_3.jpg style=width:358.4px></img']",3,,,,0,,0.0-24.0,[0],<br><img src=stimuli/b_y_2.jpg style=width:358.4px></img,5015,2,,hb_hy_r,260292,surprise_quiz,58,survey-multi-choice,
1605,3_ramp_blue,False,,True,"['<br><img src=stimuli/r_y_0.jpg style=width:358.4px></img', '<br><img src=stimuli/r_y_1.jpg style=width:358.4px></img', '<br><img src=stimuli/r_y_2.jpg style=width:358.4px></img', '<br><img src=stimuli/r_y_3.jpg style=width:358.4px></img']",3,,,,1,,0.0-25.0,[0],<br><img src=stimuli/r_y_0.jpg style=width:358.4px></img,5819,0,,lr_hy_r,266112,surprise_quiz,59,survey-multi-choice,
1521,3_ramp_blue,,1,,,3,True,No,False,,1,0.0-5.0-0.0,,No,14649,,stimuli/lr_hy_r_first.jpg,,105863,prediction_trial,7,image-button-response,
1521,3_ramp_blue,,1,,,3,True,No,False,,2,0.0-6.0-0.0,,No,8856,,stimuli/hb_lb_r_first.jpg,,125895,prediction_trial,10,image-button-response,
1521,3_ramp_blue,,0,,,3,False,Yes,True,,3,0.0-7.0-0.0,,No,4271,,stimuli/lr_lb_r_first.jpg,,140841,prediction_trial,13,image-button-response,
1521,3_ramp_blue,,1,,,3,True,No,False,,1,0.0-8.0-0.0,,No,4268,,stimuli/lr_hy_r_first.jpg,,156459,prediction_trial,16,image-button-response,
1521,3_ramp_blue,,1,,,3,True,Yes,True,,3,0.0-9.0-0.0,,Yes,3526,,stimuli/lr_lb_r_first.jpg,,170301,prediction_trial,19,image-button-response,
1521,3_ramp_blue,,1,,,3,True,No,False,,2,0.0-10.0-0.0,,No,3001,,stimuli/hb_lb_r_first.jpg,,184312,prediction_trial,22,image-button-response,
1521,3_ramp_blue,,1,,,3,True,No,False,,0,0.0-11.0-0.0,,No,3544,,stimuli/hb_hy_r_first.jpg,,198341,prediction_trial,25,image-button-response,
1521,3_ramp_blue,,1,,,3,True,Yes,True,,3,0.0-12.0-0.0,,Yes,2390,,stimuli/lr_lb_r_first.jpg,,210359,prediction_trial,28,image-button-response,
1521,3_ramp_blue,,1,,,3,True,No,False,,2,0.0-13.0-0.0,,No,1977,,stimuli/hb_lb_r_first.jpg,,223040,prediction_trial,31,image-button-response,
1521,3_ramp_blue,,1,,,3,True,No,False,,0,0.0-14.0-0.0,,No,2274,,stimuli/hb_hy_r_first.jpg,,235821,prediction_trial,34,image-button-response,
1521,3_ramp_blue,,1,,,3,True,No,False,,1,0.0-15.0-0.0,,No,2645,,stimuli/lr_hy_r_first.jpg,,248350,prediction_trial,37,image-button-response,
1521,3_ramp_blue,,1,,,3,True,Yes,True,,3,0.0-16.0-0.0,,Yes,2108,,stimuli/lr_lb_r_first.jpg,,260111,prediction_trial,40,image-button-response,
1521,3_ramp_blue,,1,,,3,True,No,False,,0,0.0-17.0-0.0,,No,2018,,stimuli/hb_hy_r_first.jpg,,273490,prediction_trial,43,image-button-response,
1521,3_ramp_blue,,1,,,3,True,No,False,,2,0.0-18.0-0.0,,No,1880,,stimuli/hb_lb_r_first.jpg,,284884,prediction_trial,46,image-button-response,
1521,3_ramp_blue,,1,,,3,True,No,False,,0,0.0-19.0-0.0,,No,1904,,stimuli/hb_hy_r_first.jpg,,296947,prediction_trial,49,image-button-response,
1521,3_ramp_blue,,1,,,3,True,No,False,,1,0.0-20.0-0.0,,No,2665,,stimuli/lr_hy_r_first.jpg,,309384,prediction_trial,52,image-button-response,
1521,3_ramp_blue,False,,False,"['<br><img src=stimuli/b_b_0.jpg style=width:295.2px></img', '<br><img src=stimuli/b_b_1.jpg style=width:295.2px></img', '<br><img src=stimuli/b_b_2.jpg style=width:295.2px></img', '<br><img src=stimuli/b_b_3.jpg style=width:295.2px></img']",3,,,,2,,0.0-22.0,[0],<br><img src=stimuli/b_b_3.jpg style=width:295.2px></img,21597,3,,hb_lb_r,351054,surprise_quiz,56,survey-multi-choice,
1521,3_ramp_blue,False,,False,"['<br><img src=stimuli/r_y_0.jpg style=width:295.2px></img', '<br><img src=stimuli/r_y_1.jpg style=width:295.2px></img', '<br><img src=stimuli/r_y_2.jpg style=width:295.2px></img', '<br><img src=stimuli/r_y_3.jpg style=width:295.2px></img']",3,,,,1,,0.0-23.0,[0],<br><img src=stimuli/r_y_3.jpg style=width:295.2px></img,17000,3,,lr_hy_r,368057,surprise_quiz,57,survey-multi-choice,
1521,3_ramp_blue,True,,True,"['<br><img src=stimuli/r_b_0.jpg style=width:295.2px></img', '<br><img src=stimuli/r_b_1.jpg style=width:295.2px></img', '<br><img src=stimuli/r_b_2.jpg style=width:295.2px></img', '<br><img src=stimuli/r_b_3.jpg style=width:295.2px></img']",3,,,,3,,0.0-24.0,[0],<br><img src=stimuli/r_b_3.jpg style=width:295.2px></img,9715,3,,lr_lb_r,377775,surprise_quiz,58,survey-multi-choice,
1521,3_ramp_blue,True,,True,"['<br><img src=stimuli/b_y_0.jpg style=width:295.2px></img', '<br><img src=stimuli/b_y_1.jpg style=width:295.2px></img', '<br><img src=stimuli/b_y_2.jpg style=width:295.2px></img', '<br><img src=stimuli/b_y_3.jpg style=width:295.2px></img']",3,,,,0,,0.0-25.0,[0],<br><img src=stimuli/b_y_0.jpg style=width:295.2px></img,6777,0,,hb_hy_r,384556,surprise_quiz,59,survey-multi-choice,
1561,3_ramp_blue,,1,,,3,True,No,False,,0,0.0-5.0-0.0,,No,4240,,stimuli/hb_hy_r_first.jpg,,58158,prediction_trial,7,image-button-response,
1561,3_ramp_blue,,1,,,3,True,No,False,,1,0.0-6.0-0.0,,No,4827,,stimuli/lr_hy_r_first.jpg,,73015,prediction_trial,10,image-button-response,
1561,3_ramp_blue,,1,,,3,True,No,False,,0,0.0-7.0-0.0,,No,4760,,stimuli/hb_hy_r_first.jpg,,86976,prediction_trial,13,image-button-response,
1561,3_ramp_blue,,1,,,3,True,No,False,,2,0.0-8.0-0.0,,No,2356,,stimuli/hb_lb_r_first.jpg,,98962,prediction_trial,16,image-button-response,
1561,3_ramp_blue,,0,,,3,False,No,False,,0,0.0-9.0-0.0,,Yes,3133,,stimuli/hb_hy_r_first.jpg,,111759,prediction_trial,19,image-button-response,
1561,3_ramp_blue,,1,,,3,True,No,False,,1,0.0-10.0-0.0,,No,2067,,stimuli/lr_hy_r_first.jpg,,123063,prediction_trial,22,image-button-response,
1561,3_ramp_blue,,1,,,3,True,No,False,,0,0.0-11.0-0.0,,No,3465,,stimuli/hb_hy_r_first.jpg,,135755,prediction_trial,25,image-button-response,
1561,3_ramp_blue,,1,,,3,True,Yes,True,,3,0.0-12.0-0.0,,Yes,1765,,stimuli/lr_lb_r_first.jpg,,146802,prediction_trial,28,image-button-response,
1561,3_ramp_blue,,1,,,3,True,No,False,,2,0.0-13.0-0.0,,No,3412,,stimuli/hb_lb_r_first.jpg,,160343,prediction_trial,31,image-button-response,
1561,3_ramp_blue,,1,,,3,True,Yes,True,,3,0.0-14.0-0.0,,Yes,1876,,stimuli/lr_lb_r_first.jpg,,171888,prediction_trial,34,image-button-response,
1561,3_ramp_blue,,1,,,3,True,No,False,,2,0.0-15.0-0.0,,No,3032,,stimuli/hb_lb_r_first.jpg,,184520,prediction_trial,37,image-button-response,
1561,3_ramp_blue,,0,,,3,False,No,False,,1,0.0-16.0-0.0,,Yes,1738,,stimuli/lr_hy_r_first.jpg,,196024,prediction_trial,40,image-button-response,
1561,3_ramp_blue,,0,,,3,False,Yes,True,,3,0.0-17.0-0.0,,No,2693,,stimuli/lr_lb_r_first.jpg,,208061,prediction_trial,43,image-button-response,
1561,3_ramp_blue,,1,,,3,True,No,False,,1,0.0-18.0-0.0,,No,2876,,stimuli/lr_hy_r_first.jpg,,221874,prediction_trial,46,image-button-response,
1561,3_ramp_blue,,0,,,3,False,No,False,,2,0.0-19.0-0.0,,Yes,1656,,stimuli/hb_lb_r_first.jpg,,232970,prediction_trial,49,image-button-response,
1561,3_ramp_blue,,1,,,3,True,Yes,True,,3,0.0-20.0-0.0,,Yes,2377,,stimuli/lr_lb_r_first.jpg,,244701,prediction_trial,52,image-button-response,
1561,3_ramp_blue,True,,True,"['<br><img src=stimuli/r_y_0.jpg style=width:82.8px></img', '<br><img src=stimuli/r_y_1.jpg style=width:82.8px></img', '<br><img src=stimuli/r_y_2.jpg style=width:82.8px></img', '<br><img src=stimuli/r_y_3.jpg style=width:82.8px></img']",3,,,,1,,0.0-22.0,[0],<br><img src=stimuli/r_y_1.jpg style=width:82.8px></img,7605,1,,lr_hy_r,270265,surprise_quiz,56,survey-multi-choice,
1561,3_ramp_blue,True,,False,"['<br><img src=stimuli/b_b_0.jpg style=width:82.8px></img', '<br><img src=stimuli/b_b_1.jpg style=width:82.8px></img', '<br><img src=stimuli/b_b_2.jpg style=width:82.8px></img', '<br><img src=stimuli/b_b_3.jpg style=width:82.8px></img']",3,,,,2,,0.0-23.0,[0],<br><img src=stimuli/b_b_2.jpg style=width:82.8px></img,6142,2,,hb_lb_r,276410,surprise_quiz,57,survey-multi-choice,
1561,3_ramp_blue,True,,True,"['<br><img src=stimuli/b_y_0.jpg style=width:82.8px></img', '<br><img src=stimuli/b_y_1.jpg style=width:82.8px></img', '<br><img src=stimuli/b_y_2.jpg style=width:82.8px></img', '<br><img src=stimuli/b_y_3.jpg style=width:82.8px></img']",3,,,,0,,0.0-24.0,[0],<br><img src=stimuli/b_y_0.jpg style=width:82.8px></img,4460,0,,hb_hy_r,280875,surprise_quiz,58,survey-multi-choice,
1561,3_ramp_blue,True,,True,"['<br><img src=stimuli/r_b_0.jpg style=width:82.8px></img', '<br><img src=stimuli/r_b_1.jpg style=width:82.8px></img', '<br><img src=stimuli/r_b_2.jpg style=width:82.8px></img', '<br><img src=stimuli/r_b_3.jpg style=width:82.8px></img']",3,,,,3,,0.0-25.0,[0],<br><img src=stimuli/r_b_3.jpg style=width:82.8px></img,3969,3,,lr_lb_r,284846,surprise_quiz,59,survey-multi-choice,
1597,3_ramp_blue,,1,,,3,True,Yes,True,,3,0.0-5.0-0.0,,Yes,6787,,stimuli/lr_lb_r_first.jpg,,149965,prediction_trial,7,image-button-response,
1597,3_ramp_blue,,1,,,3,True,No,False,,2,0.0-6.0-0.0,,No,3122,,stimuli/hb_lb_r_first.jpg,,162528,prediction_trial,10,image-button-response,
1597,3_ramp_blue,,0,,,3,False,No,False,,0,0.0-7.0-0.0,,Yes,6247,,stimuli/hb_hy_r_first.jpg,,179411,prediction_trial,13,image-button-response,
1597,3_ramp_blue,,1,,,3,True,Yes,True,,3,0.0-8.0-0.0,,Yes,1829,,stimuli/lr_lb_r_first.jpg,,190052,prediction_trial,16,image-button-response,
1597,3_ramp_blue,,1,,,3,True,No,False,,2,0.0-9.0-0.0,,No,6971,,stimuli/hb_lb_r_first.jpg,,206391,prediction_trial,19,image-button-response,
1597,3_ramp_blue,,0,,,3,False,No,False,,0,0.0-10.0-0.0,,Yes,2816,,stimuli/hb_hy_r_first.jpg,,218797,prediction_trial,22,image-button-response,
1597,3_ramp_blue,,0,,,3,False,No,False,,1,0.0-11.0-0.0,,Yes,1756,,stimuli/lr_hy_r_first.jpg,,229908,prediction_trial,25,image-button-response,
1597,3_ramp_blue,,0,,,3,False,No,False,,0,0.0-12.0-0.0,,Yes,1739,,stimuli/hb_hy_r_first.jpg,,240572,prediction_trial,28,image-button-response,
1597,3_ramp_blue,,1,,,3,True,Yes,True,,3,0.0-13.0-0.0,,Yes,1676,,stimuli/lr_lb_r_first.jpg,,250722,prediction_trial,31,image-button-response,
1597,3_ramp_blue,,1,,,3,True,No,False,,1,0.0-14.0-0.0,,No,1588,,stimuli/lr_hy_r_first.jpg,,261320,prediction_trial,34,image-button-response,
1597,3_ramp_blue,,1,,,3,True,Yes,True,,3,0.0-15.0-0.0,,Yes,2120,,stimuli/lr_lb_r_first.jpg,,272075,prediction_trial,37,image-button-response,
1597,3_ramp_blue,,1,,,3,True,No,False,,0,0.0-16.0-0.0,,No,1470,,stimuli/hb_hy_r_first.jpg,,282360,prediction_trial,40,image-button-response,
1597,3_ramp_blue,,0,,,3,False,No,False,,2,0.0-17.0-0.0,,Yes,1829,,stimuli/hb_lb_r_first.jpg,,292604,prediction_trial,43,image-button-response,
1597,3_ramp_blue,,0,,,3,False,No,False,,1,0.0-18.0-0.0,,Yes,7011,,stimuli/lr_hy_r_first.jpg,,309484,prediction_trial,46,image-button-response,
1597,3_ramp_blue,,1,,,3,True,No,False,,2,0.0-19.0-0.0,,No,3337,,stimuli/hb_lb_r_first.jpg,,321638,prediction_trial,49,image-button-response,
1597,3_ramp_blue,,0,,,3,False,No,False,,1,0.0-20.0-0.0,,Yes,2183,,stimuli/lr_hy_r_first.jpg,,333144,prediction_trial,52,image-button-response,
1597,3_ramp_blue,False,,False,"['<br><img src=stimuli/r_y_0.jpg style=width:273.2px></img', '<br><img src=stimuli/r_y_1.jpg style=width:273.2px></img', '<br><img src=stimuli/r_y_2.jpg style=width:273.2px></img', '<br><img src=stimuli/r_y_3.jpg style=width:273.2px></img']",3,,,,1,,0.0-22.0,[0],<br><img src=stimuli/r_y_2.jpg style=width:273.2px></img,9201,2,,lr_hy_r,358728,surprise_quiz,56,survey-multi-choice,
1597,3_ramp_blue,False,,False,"['<br><img src=stimuli/b_y_0.jpg style=width:273.2px></img', '<br><img src=stimuli/b_y_1.jpg style=width:273.2px></img', '<br><img src=stimuli/b_y_2.jpg style=width:273.2px></img', '<br><img src=stimuli/b_y_3.jpg style=width:273.2px></img']",3,,,,0,,0.0-23.0,[0],<br><img src=stimuli/b_y_3.jpg style=width:273.2px></img,5527,3,,hb_hy_r,364259,surprise_quiz,57,survey-multi-choice,
1597,3_ramp_blue,True,,True,"['<br><img src=stimuli/r_b_0.jpg style=width:273.2px></img', '<br><img src=stimuli/r_b_1.jpg style=width:273.2px></img', '<br><img src=stimuli/r_b_2.jpg style=width:273.2px></img', '<br><img src=stimuli/r_b_3.jpg style=width:273.2px></img']",3,,,,3,,0.0-24.0,[0],<br><img src=stimuli/r_b_3.jpg style=width:273.2px></img,7343,3,,lr_lb_r,371607,surprise_quiz,58,survey-multi-choice,
1597,3_ramp_blue,False,,True,"['<br><img src=stimuli/b_b_0.jpg style=width:273.2px></img', '<br><img src=stimuli/b_b_1.jpg style=width:273.2px></img', '<br><img src=stimuli/b_b_2.jpg style=width:273.2px></img', '<br><img src=stimuli/b_b_3.jpg style=width:273.2px></img']",3,,,,2,,0.0-25.0,[0],<br><img src=stimuli/b_b_1.jpg style=width:273.2px></img,4017,1,,hb_lb_r,375629,surprise_quiz,59,survey-multi-choice,
1565,3_ramp_blue,,0,,,3,False,No,False,,2,0.0-5.0-0.0,,Yes,3550,,stimuli/hb_lb_r_first.jpg,,67690,prediction_trial,7,image-button-response,
1565,3_ramp_blue,,0,,,3,False,No,False,,1,0.0-6.0-0.0,,Yes,4123,,stimuli/lr_hy_r_first.jpg,,82073,prediction_trial,10,image-button-response,
1565,3_ramp_blue,,1,,,3,True,No,False,,2,0.0-7.0-0.0,,No,2435,,stimuli/hb_lb_r_first.jpg,,93272,prediction_trial,13,image-button-response,
1565,3_ramp_blue,,1,,,3,True,Yes,True,,3,0.0-8.0-0.0,,Yes,5738,,stimuli/lr_lb_r_first.jpg,,108689,prediction_trial,16,image-button-response,
1565,3_ramp_blue,,1,,,3,True,No,False,,2,0.0-9.0-0.0,,No,4289,,stimuli/hb_lb_r_first.jpg,,122903,prediction_trial,19,image-button-response,
1565,3_ramp_blue,,0,,,3,False,No,False,,1,0.0-10.0-0.0,,Yes,3067,,stimuli/lr_hy_r_first.jpg,,136651,prediction_trial,22,image-button-response,
1565,3_ramp_blue,,1,,,3,True,Yes,True,,3,0.0-11.0-0.0,,Yes,3448,,stimuli/lr_lb_r_first.jpg,,149938,prediction_trial,25,image-button-response,
1565,3_ramp_blue,,0,,,3,False,No,False,,0,0.0-12.0-0.0,,Yes,2067,,stimuli/hb_hy_r_first.jpg,,161332,prediction_trial,28,image-button-response,
1565,3_ramp_blue,,1,,,3,True,No,False,,2,0.0-13.0-0.0,,No,2224,,stimuli/hb_lb_r_first.jpg,,173395,prediction_trial,31,image-button-response,
1565,3_ramp_blue,,1,,,3,True,No,False,,1,0.0-14.0-0.0,,No,1646,,stimuli/lr_hy_r_first.jpg,,184214,prediction_trial,34,image-button-response,
1565,3_ramp_blue,,1,,,3,True,Yes,True,,3,0.0-15.0-0.0,,Yes,3361,,stimuli/lr_lb_r_first.jpg,,196735,prediction_trial,37,image-button-response,
1565,3_ramp_blue,,1,,,3,True,No,False,,0,0.0-16.0-0.0,,No,1557,,stimuli/hb_hy_r_first.jpg,,208274,prediction_trial,40,image-button-response,
1565,3_ramp_blue,,1,,,3,True,No,False,,1,0.0-17.0-0.0,,No,2200,,stimuli/lr_hy_r_first.jpg,,220209,prediction_trial,43,image-button-response,
1565,3_ramp_blue,,1,,,3,True,No,False,,0,0.0-18.0-0.0,,No,2359,,stimuli/hb_hy_r_first.jpg,,232094,prediction_trial,46,image-button-response,
1565,3_ramp_blue,,1,,,3,True,Yes,True,,3,0.0-19.0-0.0,,Yes,2290,,stimuli/lr_lb_r_first.jpg,,243320,prediction_trial,49,image-button-response,
1565,3_ramp_blue,,1,,,3,True,No,False,,0,0.0-20.0-0.0,,No,1917,,stimuli/hb_hy_r_first.jpg,,254891,prediction_trial,52,image-button-response,
1565,3_ramp_blue,True,,True,"['<br><img src=stimuli/r_b_0.jpg style=width:288px></img', '<br><img src=stimuli/r_b_1.jpg style=width:288px></img', '<br><img src=stimuli/r_b_2.jpg style=width:288px></img', '<br><img src=stimuli/r_b_3.jpg style=width:288px></img']",3,,,,3,,0.0-22.0,[0],<br><img src=stimuli/r_b_3.jpg style=width:288px></img,7522,3,,lr_lb_r,279268,surprise_quiz,56,survey-multi-choice,
1565,3_ramp_blue,True,,False,"['<br><img src=stimuli/b_b_0.jpg style=width:288px></img', '<br><img src=stimuli/b_b_1.jpg style=width:288px></img', '<br><img src=stimuli/b_b_2.jpg style=width:288px></img', '<br><img src=stimuli/b_b_3.jpg style=width:288px></img']",3,,,,2,,0.0-23.0,[0],<br><img src=stimuli/b_b_2.jpg style=width:288px></img,6166,2,,hb_lb_r,285438,surprise_quiz,57,survey-multi-choice,
1565,3_ramp_blue,False,,False,"['<br><img src=stimuli/r_y_0.jpg style=width:288px></img', '<br><img src=stimuli/r_y_1.jpg style=width:288px></img', '<br><img src=stimuli/r_y_2.jpg style=width:288px></img', '<br><img src=stimuli/r_y_3.jpg style=width:288px></img']",3,,,,1,,0.0-24.0,[0],<br><img src=stimuli/r_y_2.jpg style=width:288px></img,7216,2,,lr_hy_r,292656,surprise_quiz,58,survey-multi-choice,
1565,3_ramp_blue,True,,True,"['<br><img src=stimuli/b_y_0.jpg style=width:288px></img', '<br><img src=stimuli/b_y_1.jpg style=width:288px></img', '<br><img src=stimuli/b_y_2.jpg style=width:288px></img', '<br><img src=stimuli/b_y_3.jpg style=width:288px></img']",3,,,,0,,0.0-25.0,[0],<br><img src=stimuli/b_y_0.jpg style=width:288px></img,2366,0,,hb_hy_r,295026,surprise_quiz,59,survey-multi-choice,
1513,3_ramp_blue,,1,,,3,True,No,False,,0,0.0-5.0-0.0,,No,2808,,stimuli/hb_hy_r_first.jpg,,31602,prediction_trial,7,image-button-response,
1513,3_ramp_blue,,1,,,3,True,No,False,,2,0.0-6.0-0.0,,No,2776,,stimuli/hb_lb_r_first.jpg,,43684,prediction_trial,10,image-button-response,
1513,3_ramp_blue,,1,,,3,True,No,False,,1,0.0-7.0-0.0,,No,2263,,stimuli/lr_hy_r_first.jpg,,55466,prediction_trial,13,image-button-response,
1513,3_ramp_blue,,1,,,3,True,No,False,,2,0.0-8.0-0.0,,No,2760,,stimuli/hb_lb_r_first.jpg,,67070,prediction_trial,16,image-button-response,
1513,3_ramp_blue,,1,,,3,True,No,False,,1,0.0-9.0-0.0,,No,2805,,stimuli/lr_hy_r_first.jpg,,79209,prediction_trial,19,image-button-response,
1513,3_ramp_blue,,1,,,3,True,No,False,,2,0.0-10.0-0.0,,No,1757,,stimuli/hb_lb_r_first.jpg,,89553,prediction_trial,22,image-button-response,
1513,3_ramp_blue,,0,,,3,False,Yes,True,,3,0.0-11.0-0.0,,No,1636,,stimuli/lr_lb_r_first.jpg,,100373,prediction_trial,25,image-button-response,
1513,3_ramp_blue,,1,,,3,True,No,False,,0,0.0-12.0-0.0,,No,1402,,stimuli/hb_hy_r_first.jpg,,110895,prediction_trial,28,image-button-response,
1513,3_ramp_blue,,1,,,3,True,No,False,,2,0.0-13.0-0.0,,No,1525,,stimuli/hb_lb_r_first.jpg,,120947,prediction_trial,31,image-button-response,
1513,3_ramp_blue,,1,,,3,True,No,False,,1,0.0-14.0-0.0,,No,1488,,stimuli/lr_hy_r_first.jpg,,131639,prediction_trial,34,image-button-response,
1513,3_ramp_blue,,1,,,3,True,Yes,True,,3,0.0-15.0-0.0,,Yes,1747,,stimuli/lr_lb_r_first.jpg,,142013,prediction_trial,37,image-button-response,
1513,3_ramp_blue,,1,,,3,True,No,False,,0,0.0-16.0-0.0,,No,1104,,stimuli/hb_hy_r_first.jpg,,152211,prediction_trial,40,image-button-response,
1513,3_ramp_blue,,1,,,3,True,Yes,True,,3,0.0-17.0-0.0,,Yes,2976,,stimuli/lr_lb_r_first.jpg,,163709,prediction_trial,43,image-button-response,
1513,3_ramp_blue,,1,,,3,True,No,False,,1,0.0-18.0-0.0,,No,1083,,stimuli/lr_hy_r_first.jpg,,173768,prediction_trial,46,image-button-response,
1513,3_ramp_blue,,1,,,3,True,Yes,True,,3,0.0-19.0-0.0,,Yes,1296,,stimuli/lr_lb_r_first.jpg,,183546,prediction_trial,49,image-button-response,
1513,3_ramp_blue,,1,,,3,True,No,False,,0,0.0-20.0-0.0,,No,997,,stimuli/hb_hy_r_first.jpg,,193497,prediction_trial,52,image-button-response,
1513,3_ramp_blue,False,,True,"['<br><img src=stimuli/b_b_0.jpg style=width:307.2px></img', '<br><img src=stimuli/b_b_1.jpg style=width:307.2px></img', '<br><img src=stimuli/b_b_2.jpg style=width:307.2px></img', '<br><img src=stimuli/b_b_3.jpg style=width:307.2px></img']",3,,,,2,,0.0-22.0,[0],<br><img src=stimuli/b_b_1.jpg style=width:307.2px></img,8224,1,,hb_lb_r,213851,surprise_quiz,56,survey-multi-choice,
1513,3_ramp_blue,True,,True,"['<br><img src=stimuli/r_b_0.jpg style=width:307.2px></img', '<br><img src=stimuli/r_b_1.jpg style=width:307.2px></img', '<br><img src=stimuli/r_b_2.jpg style=width:307.2px></img', '<br><img src=stimuli/r_b_3.jpg style=width:307.2px></img']",3,,,,3,,0.0-23.0,[0],<br><img src=stimuli/r_b_3.jpg style=width:307.2px></img,3948,3,,lr_lb_r,217803,surprise_quiz,57,survey-multi-choice,
1513,3_ramp_blue,False,,False,"['<br><img src=stimuli/r_y_0.jpg style=width:307.2px></img', '<br><img src=stimuli/r_y_1.jpg style=width:307.2px></img', '<br><img src=stimuli/r_y_2.jpg style=width:307.2px></img', '<br><img src=stimuli/r_y_3.jpg style=width:307.2px></img']",3,,,,1,,0.0-24.0,[0],<br><img src=stimuli/r_y_2.jpg style=width:307.2px></img,3600,2,,lr_hy_r,221406,surprise_quiz,58,survey-multi-choice,
1513,3_ramp_blue,True,,True,"['<br><img src=stimuli/b_y_0.jpg style=width:307.2px></img', '<br><img src=stimuli/b_y_1.jpg style=width:307.2px></img', '<br><img src=stimuli/b_y_2.jpg style=width:307.2px></img', '<br><img src=stimuli/b_y_3.jpg style=width:307.2px></img']",3,,,,0,,0.0-25.0,[0],<br><img src=stimuli/b_y_0.jpg style=width:307.2px></img,2990,0,,hb_hy_r,224399,surprise_quiz,59,survey-multi-choice,
1617,3_ramp_blue,,0,,,3,False,No,False,,1,0.0-5.0-0.0,,Yes,3958,,stimuli/lr_hy_r_first.jpg,,43065,prediction_trial,7,image-button-response,
1617,3_ramp_blue,,0,,,3,False,Yes,True,,3,0.0-6.0-0.0,,No,1964,,stimuli/lr_lb_r_first.jpg,,54593,prediction_trial,10,image-button-response,
1617,3_ramp_blue,,0,,,3,False,No,False,,2,0.0-7.0-0.0,,Yes,2539,,stimuli/hb_lb_r_first.jpg,,66449,prediction_trial,13,image-button-response,
1617,3_ramp_blue,,0,,,3,False,No,False,,1,0.0-8.0-0.0,,Yes,1685,,stimuli/lr_hy_r_first.jpg,,77277,prediction_trial,16,image-button-response,
1617,3_ramp_blue,,0,,,3,False,No,False,,0,0.0-9.0-0.0,,Yes,1379,,stimuli/hb_hy_r_first.jpg,,87814,prediction_trial,19,image-button-response,
1617,3_ramp_blue,,1,,,3,True,Yes,True,,3,0.0-10.0-0.0,,Yes,1395,,stimuli/lr_lb_r_first.jpg,,97558,prediction_trial,22,image-button-response,
1617,3_ramp_blue,,0,,,3,False,No,False,,2,0.0-11.0-0.0,,Yes,1661,,stimuli/hb_lb_r_first.jpg,,108308,prediction_trial,25,image-button-response,
1617,3_ramp_blue,,1,,,3,True,No,False,,0,0.0-12.0-0.0,,No,2857,,stimuli/hb_hy_r_first.jpg,,120054,prediction_trial,28,image-button-response,
1617,3_ramp_blue,,0,,,3,False,No,False,,2,0.0-13.0-0.0,,Yes,2213,,stimuli/hb_lb_r_first.jpg,,130672,prediction_trial,31,image-button-response,
1617,3_ramp_blue,,0,,,3,False,No,False,,1,0.0-14.0-0.0,,Yes,1621,,stimuli/lr_hy_r_first.jpg,,141479,prediction_trial,34,image-button-response,
1617,3_ramp_blue,,0,,,3,False,Yes,True,,3,0.0-15.0-0.0,,No,2193,,stimuli/lr_lb_r_first.jpg,,152231,prediction_trial,37,image-button-response,
1617,3_ramp_blue,,1,,,3,True,No,False,,1,0.0-16.0-0.0,,No,1973,,stimuli/lr_hy_r_first.jpg,,163014,prediction_trial,40,image-button-response,
1617,3_ramp_blue,,1,,,3,True,Yes,True,,3,0.0-17.0-0.0,,Yes,1606,,stimuli/lr_lb_r_first.jpg,,173830,prediction_trial,43,image-button-response,
1617,3_ramp_blue,,0,,,3,False,No,False,,0,0.0-18.0-0.0,,Yes,1226,,stimuli/hb_hy_r_first.jpg,,183966,prediction_trial,46,image-button-response,
1617,3_ramp_blue,,0,,,3,False,No,False,,2,0.0-19.0-0.0,,Yes,1486,,stimuli/hb_lb_r_first.jpg,,194493,prediction_trial,49,image-button-response,
1617,3_ramp_blue,,1,,,3,True,No,False,,0,0.0-20.0-0.0,,No,1515,,stimuli/hb_hy_r_first.jpg,,205869,prediction_trial,52,image-button-response,
1617,3_ramp_blue,False,,True,"['<br><img src=stimuli/r_y_0.jpg style=width:323.2px></img', '<br><img src=stimuli/r_y_1.jpg style=width:323.2px></img', '<br><img src=stimuli/r_y_2.jpg style=width:323.2px></img', '<br><img src=stimuli/r_y_3.jpg style=width:323.2px></img']",3,,,,1,,0.0-22.0,[0],<br><img src=stimuli/r_y_0.jpg style=width:323.2px></img,7818,0,,lr_hy_r,225028,surprise_quiz,56,survey-multi-choice,
1617,3_ramp_blue,False,,False,"['<br><img src=stimuli/b_y_0.jpg style=width:323.2px></img', '<br><img src=stimuli/b_y_1.jpg style=width:323.2px></img', '<br><img src=stimuli/b_y_2.jpg style=width:323.2px></img', '<br><img src=stimuli/b_y_3.jpg style=width:323.2px></img']",3,,,,0,,0.0-23.0,[0],<br><img src=stimuli/b_y_3.jpg style=width:323.2px></img,4864,3,,hb_hy_r,229899,surprise_quiz,57,survey-multi-choice,
1617,3_ramp_blue,False,,True,"['<br><img src=stimuli/r_b_0.jpg style=width:323.2px></img', '<br><img src=stimuli/r_b_1.jpg style=width:323.2px></img', '<br><img src=stimuli/r_b_2.jpg style=width:323.2px></img', '<br><img src=stimuli/r_b_3.jpg style=width:323.2px></img']",3,,,,3,,0.0-24.0,[0],<br><img src=stimuli/r_b_2.jpg style=width:323.2px></img,9084,2,,lr_lb_r,238991,surprise_quiz,58,survey-multi-choice,
1617,3_ramp_blue,False,,True,"['<br><img src=stimuli/b_b_0.jpg style=width:323.2px></img', '<br><img src=stimuli/b_b_1.jpg style=width:323.2px></img', '<br><img src=stimuli/b_b_2.jpg style=width:323.2px></img', '<br><img src=stimuli/b_b_3.jpg style=width:323.2px></img']",3,,,,2,,0.0-25.0,[0],<br><img src=stimuli/b_b_1.jpg style=width:323.2px></img,3019,1,,hb_lb_r,242017,surprise_quiz,59,survey-multi-choice,
1557,3_ramp_blue,,0,,,3,False,Yes,True,,3,0.0-5.0-0.0,,No,5832,,stimuli/lr_lb_r_first.jpg,,298604,prediction_trial,7,image-button-response,
1557,3_ramp_blue,,0,,,3,False,No,False,,1,0.0-6.0-0.0,,Yes,2208,,stimuli/lr_hy_r_first.jpg,,312102,prediction_trial,10,image-button-response,
1557,3_ramp_blue,,0,,,3,False,No,False,,0,0.0-7.0-0.0,,Yes,10575,,stimuli/hb_hy_r_first.jpg,,367048,prediction_trial,13,image-button-response,
1557,3_ramp_blue,,1,,,3,True,Yes,True,,3,0.0-8.0-0.0,,Yes,13766,,stimuli/lr_lb_r_first.jpg,,397296,prediction_trial,16,image-button-response,
1557,3_ramp_blue,,1,,,3,True,No,False,,2,0.0-9.0-0.0,,No,10225,,stimuli/hb_lb_r_first.jpg,,430084,prediction_trial,19,image-button-response,
1557,3_ramp_blue,,1,,,3,True,No,False,,0,0.0-10.0-0.0,,No,10056,,stimuli/hb_hy_r_first.jpg,,453676,prediction_trial,22,image-button-response,
1557,3_ramp_blue,,1,,,3,True,No,False,,1,0.0-11.0-0.0,,No,5373,,stimuli/lr_hy_r_first.jpg,,475886,prediction_trial,25,image-button-response,
1557,3_ramp_blue,,1,,,3,True,Yes,True,,3,0.0-12.0-0.0,,Yes,6057,,stimuli/lr_lb_r_first.jpg,,493550,prediction_trial,28,image-button-response,
1557,3_ramp_blue,,1,,,3,True,No,False,,0,0.0-13.0-0.0,,No,5414,,stimuli/hb_hy_r_first.jpg,,509205,prediction_trial,31,image-button-response,
1557,3_ramp_blue,,1,,,3,True,No,False,,2,0.0-14.0-0.0,,No,6271,,stimuli/hb_lb_r_first.jpg,,531676,prediction_trial,34,image-button-response,
1557,3_ramp_blue,,1,,,3,True,No,False,,1,0.0-15.0-0.0,,No,5904,,stimuli/lr_hy_r_first.jpg,,546993,prediction_trial,37,image-button-response,
1557,3_ramp_blue,,1,,,3,True,No,False,,2,0.0-16.0-0.0,,No,4359,,stimuli/hb_lb_r_first.jpg,,561953,prediction_trial,40,image-button-response,
1557,3_ramp_blue,,1,,,3,True,No,False,,0,0.0-17.0-0.0,,No,4217,,stimuli/hb_hy_r_first.jpg,,575540,prediction_trial,43,image-button-response,
1557,3_ramp_blue,,1,,,3,True,No,False,,2,0.0-18.0-0.0,,No,4079,,stimuli/hb_lb_r_first.jpg,,588128,prediction_trial,46,image-button-response,
1557,3_ramp_blue,,1,,,3,True,Yes,True,,3,0.0-19.0-0.0,,Yes,5981,,stimuli/lr_lb_r_first.jpg,,607333,prediction_trial,49,image-button-response,
1557,3_ramp_blue,,1,,,3,True,No,False,,1,0.0-20.0-0.0,,No,4883,,stimuli/lr_hy_r_first.jpg,,622170,prediction_trial,52,image-button-response,
1557,3_ramp_blue,True,,False,"['<br><img src=stimuli/b_b_0.jpg style=width:273.2px></img', '<br><img src=stimuli/b_b_1.jpg style=width:273.2px></img', '<br><img src=stimuli/b_b_2.jpg style=width:273.2px></img', '<br><img src=stimuli/b_b_3.jpg style=width:273.2px></img']",3,,,,2,,0.0-22.0,[0],<br><img src=stimuli/b_b_2.jpg style=width:273.2px></img,52163,2,,hb_lb_r,801641,surprise_quiz,56,survey-multi-choice,
1557,3_ramp_blue,True,,True,"['<br><img src=stimuli/b_y_0.jpg style=width:273.2px></img', '<br><img src=stimuli/b_y_1.jpg style=width:273.2px></img', '<br><img src=stimuli/b_y_2.jpg style=width:273.2px></img', '<br><img src=stimuli/b_y_3.jpg style=width:273.2px></img']",3,,,,0,,0.0-23.0,[0],<br><img src=stimuli/b_y_0.jpg style=width:273.2px></img,16354,0,,hb_hy_r,817998,surprise_quiz,57,survey-multi-choice,
1557,3_ramp_blue,True,,True,"['<br><img src=stimuli/r_y_0.jpg style=width:273.2px></img', '<br><img src=stimuli/r_y_1.jpg style=width:273.2px></img', '<br><img src=stimuli/r_y_2.jpg style=width:273.2px></img', '<br><img src=stimuli/r_y_3.jpg style=width:273.2px></img']",3,,,,1,,0.0-24.0,[0],<br><img src=stimuli/r_y_1.jpg style=width:273.2px></img,11818,1,,lr_hy_r,829817,surprise_quiz,58,survey-multi-choice,
1557,3_ramp_blue,True,,True,"['<br><img src=stimuli/r_b_0.jpg style=width:273.2px></img', '<br><img src=stimuli/r_b_1.jpg style=width:273.2px></img', '<br><img src=stimuli/r_b_2.jpg style=width:273.2px></img', '<br><img src=stimuli/r_b_3.jpg style=width:273.2px></img']",3,,,,3,,0.0-25.0,[0],<br><img src=stimuli/r_b_3.jpg style=width:273.2px></img,9623,3,,lr_lb_r,839441,surprise_quiz,59,survey-multi-choice,
1613,3_ramp_blue,,0,,,3,False,No,False,,1,0.0-5.0-0.0,,Yes,3208,,stimuli/lr_hy_r_first.jpg,,59257,prediction_trial,7,image-button-response,
1613,3_ramp_blue,,0,,,3,False,No,False,,2,0.0-6.0-0.0,,Yes,2606,,stimuli/hb_lb_r_first.jpg,,71002,prediction_trial,10,image-button-response,
1613,3_ramp_blue,,0,,,3,False,No,False,,0,0.0-7.0-0.0,,Yes,2861,,stimuli/hb_hy_r_first.jpg,,82785,prediction_trial,13,image-button-response,
1613,3_ramp_blue,,1,,,3,True,No,False,,2,0.0-8.0-0.0,,No,1381,,stimuli/hb_lb_r_first.jpg,,92554,prediction_trial,16,image-button-response,
1613,3_ramp_blue,,1,,,3,True,Yes,True,,3,0.0-9.0-0.0,,Yes,1856,,stimuli/lr_lb_r_first.jpg,,103548,prediction_trial,19,image-button-response,
1613,3_ramp_blue,,1,,,3,True,No,False,,0,0.0-10.0-0.0,,No,1242,,stimuli/hb_hy_r_first.jpg,,114197,prediction_trial,22,image-button-response,
1613,3_ramp_blue,,1,,,3,True,No,False,,2,0.0-11.0-0.0,,No,1802,,stimuli/hb_lb_r_first.jpg,,124396,prediction_trial,25,image-button-response,
1613,3_ramp_blue,,1,,,3,True,No,False,,0,0.0-12.0-0.0,,No,1313,,stimuli/hb_hy_r_first.jpg,,134681,prediction_trial,28,image-button-response,
1613,3_ramp_blue,,1,,,3,True,Yes,True,,3,0.0-13.0-0.0,,Yes,2104,,stimuli/lr_lb_r_first.jpg,,145169,prediction_trial,31,image-button-response,
1613,3_ramp_blue,,1,,,3,True,No,False,,1,0.0-14.0-0.0,,No,909,,stimuli/lr_hy_r_first.jpg,,154938,prediction_trial,34,image-button-response,
1613,3_ramp_blue,,1,,,3,True,No,False,,2,0.0-15.0-0.0,,No,1218,,stimuli/hb_lb_r_first.jpg,,164653,prediction_trial,37,image-button-response,
1613,3_ramp_blue,,1,,,3,True,No,False,,1,0.0-16.0-0.0,,No,1288,,stimuli/lr_hy_r_first.jpg,,174647,prediction_trial,40,image-button-response,
1613,3_ramp_blue,,1,,,3,True,Yes,True,,3,0.0-17.0-0.0,,Yes,1001,,stimuli/lr_lb_r_first.jpg,,184536,prediction_trial,43,image-button-response,
1613,3_ramp_blue,,1,,,3,True,No,False,,1,0.0-18.0-0.0,,No,940,,stimuli/lr_hy_r_first.jpg,,194197,prediction_trial,46,image-button-response,
1613,3_ramp_blue,,1,,,3,True,Yes,True,,3,0.0-19.0-0.0,,Yes,1224,,stimuli/lr_lb_r_first.jpg,,207418,prediction_trial,49,image-button-response,
1613,3_ramp_blue,,1,,,3,True,No,False,,0,0.0-20.0-0.0,,No,2131,,stimuli/hb_hy_r_first.jpg,,218752,prediction_trial,52,image-button-response,
1613,3_ramp_blue,True,,True,"['<br><img src=stimuli/b_y_0.jpg style=width:409.6px></img', '<br><img src=stimuli/b_y_1.jpg style=width:409.6px></img', '<br><img src=stimuli/b_y_2.jpg style=width:409.6px></img', '<br><img src=stimuli/b_y_3.jpg style=width:409.6px></img']",3,,,,0,,0.0-22.0,[0],<br><img src=stimuli/b_y_0.jpg style=width:409.6px></img,6938,0,,hb_hy_r,240088,surprise_quiz,56,survey-multi-choice,
1613,3_ramp_blue,True,,True,"['<br><img src=stimuli/r_b_0.jpg style=width:409.6px></img', '<br><img src=stimuli/r_b_1.jpg style=width:409.6px></img', '<br><img src=stimuli/r_b_2.jpg style=width:409.6px></img', '<br><img src=stimuli/r_b_3.jpg style=width:409.6px></img']",3,,,,3,,0.0-23.0,[0],<br><img src=stimuli/r_b_3.jpg style=width:409.6px></img,5090,3,,lr_lb_r,245179,surprise_quiz,57,survey-multi-choice,
1613,3_ramp_blue,True,,True,"['<br><img src=stimuli/r_y_0.jpg style=width:409.6px></img', '<br><img src=stimuli/r_y_1.jpg style=width:409.6px></img', '<br><img src=stimuli/r_y_2.jpg style=width:409.6px></img', '<br><img src=stimuli/r_y_3.jpg style=width:409.6px></img']",3,,,,1,,0.0-24.0,[0],<br><img src=stimuli/r_y_1.jpg style=width:409.6px></img,5247,1,,lr_hy_r,250428,surprise_quiz,58,survey-multi-choice,
1613,3_ramp_blue,False,,True,"['<br><img src=stimuli/b_b_0.jpg style=width:409.6px></img', '<br><img src=stimuli/b_b_1.jpg style=width:409.6px></img', '<br><img src=stimuli/b_b_2.jpg style=width:409.6px></img', '<br><img src=stimuli/b_b_3.jpg style=width:409.6px></img']",3,,,,2,,0.0-25.0,[0],<br><img src=stimuli/b_b_1.jpg style=width:409.6px></img,3254,1,,hb_lb_r,253684,surprise_quiz,59,survey-multi-choice,
1569,3_ramp_blue,,1,,,3,True,No,False,,2,0.0-5.0-0.0,,No,4574,,stimuli/hb_lb_r_first.jpg,,85562,prediction_trial,7,image-button-response,
1569,3_ramp_blue,,0,,,3,False,No,False,,1,0.0-6.0-0.0,,Yes,2995,,stimuli/lr_hy_r_first.jpg,,98702,prediction_trial,10,image-button-response,
1569,3_ramp_blue,,1,,,3,True,No,False,,2,0.0-7.0-0.0,,No,4657,,stimuli/hb_lb_r_first.jpg,,113026,prediction_trial,13,image-button-response,
1569,3_ramp_blue,,1,,,3,True,No,False,,1,0.0-8.0-0.0,,No,2023,,stimuli/lr_hy_r_first.jpg,,124393,prediction_trial,16,image-button-response,
1569,3_ramp_blue,,1,,,3,True,Yes,True,,3,0.0-9.0-0.0,,Yes,6100,,stimuli/lr_lb_r_first.jpg,,139791,prediction_trial,19,image-button-response,
1569,3_ramp_blue,,1,,,3,True,No,False,,0,0.0-10.0-0.0,,No,2119,,stimuli/hb_hy_r_first.jpg,,151405,prediction_trial,22,image-button-response,
1569,3_ramp_blue,,1,,,3,True,Yes,True,,3,0.0-11.0-0.0,,Yes,2076,,stimuli/lr_lb_r_first.jpg,,162740,prediction_trial,25,image-button-response,
1569,3_ramp_blue,,1,,,3,True,No,False,,0,0.0-12.0-0.0,,No,2189,,stimuli/hb_hy_r_first.jpg,,174524,prediction_trial,28,image-button-response,
1569,3_ramp_blue,,1,,,3,True,Yes,True,,3,0.0-13.0-0.0,,Yes,3800,,stimuli/lr_lb_r_first.jpg,,187056,prediction_trial,31,image-button-response,
1569,3_ramp_blue,,1,,,3,True,No,False,,2,0.0-14.0-0.0,,No,1921,,stimuli/hb_lb_r_first.jpg,,198173,prediction_trial,34,image-button-response,
1569,3_ramp_blue,,0,,,3,False,No,False,,1,0.0-15.0-0.0,,Yes,2789,,stimuli/lr_hy_r_first.jpg,,210396,prediction_trial,37,image-button-response,
1569,3_ramp_blue,,1,,,3,True,No,False,,0,0.0-16.0-0.0,,No,1896,,stimuli/hb_hy_r_first.jpg,,221230,prediction_trial,40,image-button-response,
1569,3_ramp_blue,,0,,,3,False,No,False,,2,0.0-17.0-0.0,,Yes,3320,,stimuli/hb_lb_r_first.jpg,,247762,prediction_trial,43,image-button-response,
1569,3_ramp_blue,,1,,,3,True,No,False,,1,0.0-18.0-0.0,,No,4424,,stimuli/lr_hy_r_first.jpg,,261496,prediction_trial,46,image-button-response,
1569,3_ramp_blue,,1,,,3,True,No,False,,0,0.0-19.0-0.0,,No,3713,,stimuli/hb_hy_r_first.jpg,,274143,prediction_trial,49,image-button-response,
1569,3_ramp_blue,,1,,,3,True,Yes,True,,3,0.0-20.0-0.0,,Yes,6484,,stimuli/lr_lb_r_first.jpg,,337553,prediction_trial,52,image-button-response,
1569,3_ramp_blue,True,,True,"['<br><img src=stimuli/b_y_0.jpg style=width:303.4px></img', '<br><img src=stimuli/b_y_1.jpg style=width:303.4px></img', '<br><img src=stimuli/b_y_2.jpg style=width:303.4px></img', '<br><img src=stimuli/b_y_3.jpg style=width:303.4px></img']",3,,,,0,,0.0-22.0,[0],<br><img src=stimuli/b_y_0.jpg style=width:303.4px></img,13524,0,,hb_hy_r,364712,surprise_quiz,56,survey-multi-choice,
1569,3_ramp_blue,False,,True,"['<br><img src=stimuli/b_b_0.jpg style=width:303.4px></img', '<br><img src=stimuli/b_b_1.jpg style=width:303.4px></img', '<br><img src=stimuli/b_b_2.jpg style=width:303.4px></img', '<br><img src=stimuli/b_b_3.jpg style=width:303.4px></img']",3,,,,2,,0.0-23.0,[0],<br><img src=stimuli/b_b_1.jpg style=width:303.4px></img,6487,1,,hb_lb_r,371206,surprise_quiz,57,survey-multi-choice,
1569,3_ramp_blue,False,,False,"['<br><img src=stimuli/r_y_0.jpg style=width:303.4px></img', '<br><img src=stimuli/r_y_1.jpg style=width:303.4px></img', '<br><img src=stimuli/r_y_2.jpg style=width:303.4px></img', '<br><img src=stimuli/r_y_3.jpg style=width:303.4px></img']",3,,,,1,,0.0-24.0,[0],<br><img src=stimuli/r_y_3.jpg style=width:303.4px></img,4329,3,,lr_hy_r,375539,surprise_quiz,58,survey-multi-choice,
1569,3_ramp_blue,True,,True,"['<br><img src=stimuli/r_b_0.jpg style=width:303.4px></img', '<br><img src=stimuli/r_b_1.jpg style=width:303.4px></img', '<br><img src=stimuli/r_b_2.jpg style=width:303.4px></img', '<br><img src=stimuli/r_b_3.jpg style=width:303.4px></img']",3,,,,3,,0.0-25.0,[0],<br><img src=stimuli/r_b_3.jpg style=width:303.4px></img,4369,3,,lr_lb_r,379913,surprise_quiz,59,survey-multi-choice,
1501,3_ramp_blue,,1,,,3,True,No,False,,1,0.0-5.0-0.0,,No,5794,,stimuli/lr_hy_r_first.jpg,,112986,prediction_trial,7,image-button-response,
1501,3_ramp_blue,,1,,,3,True,Yes,True,,3,0.0-6.0-0.0,,Yes,5472,,stimuli/lr_lb_r_first.jpg,,128397,prediction_trial,10,image-button-response,
1501,3_ramp_blue,,1,,,3,True,No,False,,2,0.0-7.0-0.0,,No,4970,,stimuli/hb_lb_r_first.jpg,,144104,prediction_trial,13,image-button-response,
1501,3_ramp_blue,,1,,,3,True,No,False,,0,0.0-8.0-0.0,,No,3106,,stimuli/hb_hy_r_first.jpg,,157542,prediction_trial,16,image-button-response,
1501,3_ramp_blue,,1,,,3,True,Yes,True,,3,0.0-9.0-0.0,,Yes,4963,,stimuli/lr_lb_r_first.jpg,,171194,prediction_trial,19,image-button-response,
1501,3_ramp_blue,,0,,,3,False,No,False,,2,0.0-10.0-0.0,,Yes,4906,,stimuli/hb_lb_r_first.jpg,,185363,prediction_trial,22,image-button-response,
1501,3_ramp_blue,,1,,,3,True,No,False,,1,0.0-11.0-0.0,,No,10881,,stimuli/lr_hy_r_first.jpg,,210724,prediction_trial,25,image-button-response,
1501,3_ramp_blue,,1,,,3,True,No,False,,0,0.0-12.0-0.0,,No,5162,,stimuli/hb_hy_r_first.jpg,,224754,prediction_trial,28,image-button-response,
1501,3_ramp_blue,,1,,,3,True,Yes,True,,3,0.0-13.0-0.0,,Yes,6378,,stimuli/lr_lb_r_first.jpg,,239914,prediction_trial,31,image-button-response,
1501,3_ramp_blue,,1,,,3,True,No,False,,2,0.0-14.0-0.0,,No,4295,,stimuli/hb_lb_r_first.jpg,,253726,prediction_trial,34,image-button-response,
1501,3_ramp_blue,,1,,,3,True,No,False,,0,0.0-15.0-0.0,,No,2349,,stimuli/hb_hy_r_first.jpg,,265752,prediction_trial,37,image-button-response,
1501,3_ramp_blue,,1,,,3,True,No,False,,1,0.0-16.0-0.0,,No,4257,,stimuli/lr_hy_r_first.jpg,,280722,prediction_trial,40,image-button-response,
1501,3_ramp_blue,,1,,,3,True,No,False,,2,0.0-17.0-0.0,,No,3863,,stimuli/hb_lb_r_first.jpg,,293235,prediction_trial,43,image-button-response,
1501,3_ramp_blue,,1,,,3,True,No,False,,1,0.0-18.0-0.0,,No,4267,,stimuli/lr_hy_r_first.jpg,,309284,prediction_trial,46,image-button-response,
1501,3_ramp_blue,,1,,,3,True,No,False,,0,0.0-19.0-0.0,,No,3950,,stimuli/hb_hy_r_first.jpg,,322831,prediction_trial,49,image-button-response,
1501,3_ramp_blue,,1,,,3,True,Yes,True,,3,0.0-20.0-0.0,,Yes,1692,,stimuli/lr_lb_r_first.jpg,,334473,prediction_trial,52,image-button-response,
1501,3_ramp_blue,True,,True,"['<br><img src=stimuli/r_b_0.jpg style=width:307.2px></img', '<br><img src=stimuli/r_b_1.jpg style=width:307.2px></img', '<br><img src=stimuli/r_b_2.jpg style=width:307.2px></img', '<br><img src=stimuli/r_b_3.jpg style=width:307.2px></img']",3,,,,3,,0.0-22.0,[0],<br><img src=stimuli/r_b_3.jpg style=width:307.2px></img,7414,3,,lr_lb_r,358886,surprise_quiz,56,survey-multi-choice,
1501,3_ramp_blue,True,,False,"['<br><img src=stimuli/b_b_0.jpg style=width:307.2px></img', '<br><img src=stimuli/b_b_1.jpg style=width:307.2px></img', '<br><img src=stimuli/b_b_2.jpg style=width:307.2px></img', '<br><img src=stimuli/b_b_3.jpg style=width:307.2px></img']",3,,,,2,,0.0-23.0,[0],<br><img src=stimuli/b_b_2.jpg style=width:307.2px></img,6029,2,,hb_lb_r,364918,surprise_quiz,57,survey-multi-choice,
1501,3_ramp_blue,True,,True,"['<br><img src=stimuli/r_y_0.jpg style=width:307.2px></img', '<br><img src=stimuli/r_y_1.jpg style=width:307.2px></img', '<br><img src=stimuli/r_y_2.jpg style=width:307.2px></img', '<br><img src=stimuli/r_y_3.jpg style=width:307.2px></img']",3,,,,1,,0.0-24.0,[0],<br><img src=stimuli/r_y_1.jpg style=width:307.2px></img,11159,1,,lr_hy_r,376080,surprise_quiz,58,survey-multi-choice,
1501,3_ramp_blue,False,,True,"['<br><img src=stimuli/b_y_0.jpg style=width:307.2px></img', '<br><img src=stimuli/b_y_1.jpg style=width:307.2px></img', '<br><img src=stimuli/b_y_2.jpg style=width:307.2px></img', '<br><img src=stimuli/b_y_3.jpg style=width:307.2px></img']",3,,,,0,,0.0-25.0,[0],<br><img src=stimuli/b_y_1.jpg style=width:307.2px></img,8414,1,,hb_hy_r,384497,surprise_quiz,59,survey-multi-choice,
1509,3_ramp_blue,,0,,,3,False,Yes,True,,3,0.0-5.0-0.0,,No,3530,,stimuli/lr_lb_r_first.jpg,,47051,prediction_trial,7,image-button-response,
1509,3_ramp_blue,,1,,,3,True,No,False,,1,0.0-6.0-0.0,,No,3110,,stimuli/lr_hy_r_first.jpg,,59648,prediction_trial,10,image-button-response,
1509,3_ramp_blue,,0,,,3,False,No,False,,2,0.0-7.0-0.0,,Yes,2360,,stimuli/hb_lb_r_first.jpg,,71902,prediction_trial,13,image-button-response,
1509,3_ramp_blue,,1,,,3,True,No,False,,1,0.0-8.0-0.0,,No,4176,,stimuli/lr_hy_r_first.jpg,,108490,prediction_trial,16,image-button-response,
1509,3_ramp_blue,,1,,,3,True,No,False,,0,0.0-9.0-0.0,,No,4532,,stimuli/hb_hy_r_first.jpg,,121486,prediction_trial,19,image-button-response,
1509,3_ramp_blue,,1,,,3,True,Yes,True,,3,0.0-10.0-0.0,,Yes,1370,,stimuli/lr_lb_r_first.jpg,,131090,prediction_trial,22,image-button-response,
1509,3_ramp_blue,,1,,,3,True,No,False,,0,0.0-11.0-0.0,,No,3828,,stimuli/hb_hy_r_first.jpg,,143698,prediction_trial,25,image-button-response,
1509,3_ramp_blue,,1,,,3,True,Yes,True,,3,0.0-12.0-0.0,,Yes,1773,,stimuli/lr_lb_r_first.jpg,,153670,prediction_trial,28,image-button-response,
1509,3_ramp_blue,,0,,,3,False,No,False,,1,0.0-13.0-0.0,,Yes,3747,,stimuli/lr_hy_r_first.jpg,,166124,prediction_trial,31,image-button-response,
1509,3_ramp_blue,,1,,,3,True,No,False,,2,0.0-14.0-0.0,,No,4924,,stimuli/hb_lb_r_first.jpg,,179609,prediction_trial,34,image-button-response,
1509,3_ramp_blue,,1,,,3,True,No,False,,0,0.0-15.0-0.0,,No,2463,,stimuli/hb_hy_r_first.jpg,,190780,prediction_trial,37,image-button-response,
1509,3_ramp_blue,,1,,,3,True,No,False,,2,0.0-16.0-0.0,,No,2116,,stimuli/hb_lb_r_first.jpg,,201093,prediction_trial,40,image-button-response,
1509,3_ramp_blue,,1,,,3,True,No,False,,0,0.0-17.0-0.0,,No,2109,,stimuli/hb_hy_r_first.jpg,,211956,prediction_trial,43,image-button-response,
1509,3_ramp_blue,,0,,,3,False,No,False,,1,0.0-18.0-0.0,,Yes,2084,,stimuli/lr_hy_r_first.jpg,,222796,prediction_trial,46,image-button-response,
1509,3_ramp_blue,,1,,,3,True,No,False,,2,0.0-19.0-0.0,,No,2002,,stimuli/hb_lb_r_first.jpg,,233302,prediction_trial,49,image-button-response,
1509,3_ramp_blue,,1,,,3,True,Yes,True,,3,0.0-20.0-0.0,,Yes,1309,,stimuli/lr_lb_r_first.jpg,,243248,prediction_trial,52,image-button-response,
1509,3_ramp_blue,True,,False,"['<br><img src=stimuli/b_b_0.jpg style=width:384px></img', '<br><img src=stimuli/b_b_1.jpg style=width:384px></img', '<br><img src=stimuli/b_b_2.jpg style=width:384px></img', '<br><img src=stimuli/b_b_3.jpg style=width:384px></img']",3,,,,2,,0.0-22.0,[0],<br><img src=stimuli/b_b_2.jpg style=width:384px></img,4689,2,,hb_lb_r,258933,surprise_quiz,56,survey-multi-choice,
1509,3_ramp_blue,True,,True,"['<br><img src=stimuli/r_b_0.jpg style=width:384px></img', '<br><img src=stimuli/r_b_1.jpg style=width:384px></img', '<br><img src=stimuli/r_b_2.jpg style=width:384px></img', '<br><img src=stimuli/r_b_3.jpg style=width:384px></img']",3,,,,3,,0.0-23.0,[0],<br><img src=stimuli/r_b_3.jpg style=width:384px></img,2567,3,,lr_lb_r,261503,surprise_quiz,57,survey-multi-choice,
1509,3_ramp_blue,True,,True,"['<br><img src=stimuli/b_y_0.jpg style=width:384px></img', '<br><img src=stimuli/b_y_1.jpg style=width:384px></img', '<br><img src=stimuli/b_y_2.jpg style=width:384px></img', '<br><img src=stimuli/b_y_3.jpg style=width:384px></img']",3,,,,0,,0.0-24.0,[0],<br><img src=stimuli/b_y_0.jpg style=width:384px></img,4074,0,,hb_hy_r,265576,surprise_quiz,58,survey-multi-choice,
1509,3_ramp_blue,True,,True,"['<br><img src=stimuli/r_y_0.jpg style=width:384px></img', '<br><img src=stimuli/r_y_1.jpg style=width:384px></img', '<br><img src=stimuli/r_y_2.jpg style=width:384px></img', '<br><img src=stimuli/r_y_3.jpg style=width:384px></img']",3,,,,1,,0.0-25.0,[0],<br><img src=stimuli/r_y_1.jpg style=width:384px></img,2987,1,,lr_hy_r,268564,surprise_quiz,59,survey-multi-choice,
1585,3_ramp_blue,,0,,,3,False,No,False,,1,0.0-5.0-0.0,,Yes,2755,,stimuli/lr_hy_r_first.jpg,,38161,prediction_trial,7,image-button-response,
1585,3_ramp_blue,,0,,,3,False,No,False,,2,0.0-6.0-0.0,,Yes,1404,,stimuli/hb_lb_r_first.jpg,,48496,prediction_trial,10,image-button-response,
1585,3_ramp_blue,,1,,,3,True,No,False,,1,0.0-7.0-0.0,,No,1439,,stimuli/lr_hy_r_first.jpg,,59179,prediction_trial,13,image-button-response,
1585,3_ramp_blue,,1,,,3,True,Yes,True,,3,0.0-8.0-0.0,,Yes,2743,,stimuli/lr_lb_r_first.jpg,,70313,prediction_trial,16,image-button-response,
1585,3_ramp_blue,,0,,,3,False,No,False,,2,0.0-9.0-0.0,,Yes,2785,,stimuli/hb_lb_r_first.jpg,,81922,prediction_trial,19,image-button-response,
1585,3_ramp_blue,,1,,,3,True,No,False,,0,0.0-10.0-0.0,,No,1829,,stimuli/hb_hy_r_first.jpg,,92582,prediction_trial,22,image-button-response,
1585,3_ramp_blue,,1,,,3,True,No,False,,1,0.0-11.0-0.0,,No,2273,,stimuli/lr_hy_r_first.jpg,,103026,prediction_trial,25,image-button-response,
1585,3_ramp_blue,,1,,,3,True,No,False,,0,0.0-12.0-0.0,,No,1164,,stimuli/hb_hy_r_first.jpg,,112587,prediction_trial,28,image-button-response,
1585,3_ramp_blue,,1,,,3,True,Yes,True,,3,0.0-13.0-0.0,,Yes,1832,,stimuli/lr_lb_r_first.jpg,,122882,prediction_trial,31,image-button-response,
1585,3_ramp_blue,,1,,,3,True,No,False,,2,0.0-14.0-0.0,,No,1693,,stimuli/hb_lb_r_first.jpg,,133350,prediction_trial,34,image-button-response,
1585,3_ramp_blue,,1,,,3,True,No,False,,1,0.0-15.0-0.0,,No,1510,,stimuli/lr_hy_r_first.jpg,,143441,prediction_trial,37,image-button-response,
1585,3_ramp_blue,,1,,,3,True,Yes,True,,3,0.0-16.0-0.0,,Yes,2122,,stimuli/lr_lb_r_first.jpg,,154380,prediction_trial,40,image-button-response,
1585,3_ramp_blue,,1,,,3,True,No,False,,0,0.0-17.0-0.0,,No,988,,stimuli/hb_hy_r_first.jpg,,164024,prediction_trial,43,image-button-response,
1585,3_ramp_blue,,1,,,3,True,No,False,,2,0.0-18.0-0.0,,No,1293,,stimuli/hb_lb_r_first.jpg,,173782,prediction_trial,46,image-button-response,
1585,3_ramp_blue,,1,,,3,True,No,False,,0,0.0-19.0-0.0,,No,1540,,stimuli/hb_hy_r_first.jpg,,184164,prediction_trial,49,image-button-response,
1585,3_ramp_blue,,1,,,3,True,Yes,True,,3,0.0-20.0-0.0,,Yes,2252,,stimuli/lr_lb_r_first.jpg,,194712,prediction_trial,52,image-button-response,
1585,3_ramp_blue,False,,True,"['<br><img src=stimuli/b_b_0.jpg style=width:384px></img', '<br><img src=stimuli/b_b_1.jpg style=width:384px></img', '<br><img src=stimuli/b_b_2.jpg style=width:384px></img', '<br><img src=stimuli/b_b_3.jpg style=width:384px></img']",3,,,,2,,0.0-22.0,[0],<br><img src=stimuli/b_b_1.jpg style=width:384px></img,11492,1,,hb_lb_r,218280,surprise_quiz,56,survey-multi-choice,
1585,3_ramp_blue,True,,True,"['<br><img src=stimuli/r_y_0.jpg style=width:384px></img', '<br><img src=stimuli/r_y_1.jpg style=width:384px></img', '<br><img src=stimuli/r_y_2.jpg style=width:384px></img', '<br><img src=stimuli/r_y_3.jpg style=width:384px></img']",3,,,,1,,0.0-23.0,[0],<br><img src=stimuli/r_y_1.jpg style=width:384px></img,2851,1,,lr_hy_r,221133,surprise_quiz,57,survey-multi-choice,
1585,3_ramp_blue,True,,True,"['<br><img src=stimuli/b_y_0.jpg style=width:384px></img', '<br><img src=stimuli/b_y_1.jpg style=width:384px></img', '<br><img src=stimuli/b_y_2.jpg style=width:384px></img', '<br><img src=stimuli/b_y_3.jpg style=width:384px></img']",3,,,,0,,0.0-24.0,[0],<br><img src=stimuli/b_y_0.jpg style=width:384px></img,2098,0,,hb_hy_r,223232,surprise_quiz,58,survey-multi-choice,
1585,3_ramp_blue,True,,True,"['<br><img src=stimuli/r_b_0.jpg style=width:384px></img', '<br><img src=stimuli/r_b_1.jpg style=width:384px></img', '<br><img src=stimuli/r_b_2.jpg style=width:384px></img', '<br><img src=stimuli/r_b_3.jpg style=width:384px></img']",3,,,,3,,0.0-25.0,[0],<br><img src=stimuli/r_b_3.jpg style=width:384px></img,2522,3,,lr_lb_r,225755,surprise_quiz,59,survey-multi-choice,
1505,3_ramp_blue,,0,,,3,False,No,False,,2,0.0-5.0-0.0,,Yes,6144,,stimuli/hb_lb_r_first.jpg,,120656,prediction_trial,7,image-button-response,
1505,3_ramp_blue,,0,,,3,False,No,False,,0,0.0-6.0-0.0,,Yes,3395,,stimuli/hb_hy_r_first.jpg,,134827,prediction_trial,10,image-button-response,
1505,3_ramp_blue,,1,,,3,True,No,False,,1,0.0-7.0-0.0,,No,3840,,stimuli/lr_hy_r_first.jpg,,147888,prediction_trial,13,image-button-response,
1505,3_ramp_blue,,0,,,3,False,Yes,True,,3,0.0-8.0-0.0,,No,3393,,stimuli/lr_lb_r_first.jpg,,160279,prediction_trial,16,image-button-response,
1505,3_ramp_blue,,0,,,3,False,No,False,,2,0.0-9.0-0.0,,Yes,4375,,stimuli/hb_lb_r_first.jpg,,174085,prediction_trial,19,image-button-response,
1505,3_ramp_blue,,0,,,3,False,No,False,,1,0.0-10.0-0.0,,Yes,2261,,stimuli/lr_hy_r_first.jpg,,185848,prediction_trial,22,image-button-response,
1505,3_ramp_blue,,0,,,3,False,Yes,True,,3,0.0-11.0-0.0,,No,1524,,stimuli/lr_lb_r_first.jpg,,196575,prediction_trial,25,image-button-response,
1505,3_ramp_blue,,1,,,3,True,No,False,,0,0.0-12.0-0.0,,No,2791,,stimuli/hb_hy_r_first.jpg,,209038,prediction_trial,28,image-button-response,
1505,3_ramp_blue,,0,,,3,False,Yes,True,,3,0.0-13.0-0.0,,No,2099,,stimuli/lr_lb_r_first.jpg,,220363,prediction_trial,31,image-button-response,
1505,3_ramp_blue,,1,,,3,True,No,False,,2,0.0-14.0-0.0,,No,1840,,stimuli/hb_lb_r_first.jpg,,231875,prediction_trial,34,image-button-response,
1505,3_ramp_blue,,1,,,3,True,No,False,,0,0.0-15.0-0.0,,No,2651,,stimuli/hb_hy_r_first.jpg,,244459,prediction_trial,37,image-button-response,
1505,3_ramp_blue,,0,,,3,False,No,False,,1,0.0-16.0-0.0,,Yes,2138,,stimuli/lr_hy_r_first.jpg,,255373,prediction_trial,40,image-button-response,
1505,3_ramp_blue,,1,,,3,True,No,False,,0,0.0-17.0-0.0,,No,2221,,stimuli/hb_hy_r_first.jpg,,266720,prediction_trial,43,image-button-response,
1505,3_ramp_blue,,1,,,3,True,Yes,True,,3,0.0-18.0-0.0,,Yes,2666,,stimuli/lr_lb_r_first.jpg,,278249,prediction_trial,46,image-button-response,
1505,3_ramp_blue,,0,,,3,False,No,False,,1,0.0-19.0-0.0,,Yes,2060,,stimuli/lr_hy_r_first.jpg,,289483,prediction_trial,49,image-button-response,
1505,3_ramp_blue,,1,,,3,True,No,False,,2,0.0-20.0-0.0,,No,2073,,stimuli/hb_lb_r_first.jpg,,301860,prediction_trial,52,image-button-response,
1505,3_ramp_blue,False,,True,"['<br><img src=stimuli/r_b_0.jpg style=width:320px></img', '<br><img src=stimuli/r_b_1.jpg style=width:320px></img', '<br><img src=stimuli/r_b_2.jpg style=width:320px></img', '<br><img src=stimuli/r_b_3.jpg style=width:320px></img']",3,,,,3,,0.0-22.0,[0],<br><img src=stimuli/r_b_2.jpg style=width:320px></img,10631,2,,lr_lb_r,330841,surprise_quiz,56,survey-multi-choice,
1505,3_ramp_blue,False,,True,"['<br><img src=stimuli/b_y_0.jpg style=width:320px></img', '<br><img src=stimuli/b_y_1.jpg style=width:320px></img', '<br><img src=stimuli/b_y_2.jpg style=width:320px></img', '<br><img src=stimuli/b_y_3.jpg style=width:320px></img']",3,,,,0,,0.0-23.0,[0],<br><img src=stimuli/b_y_1.jpg style=width:320px></img,13770,1,,hb_hy_r,344616,surprise_quiz,57,survey-multi-choice,
1505,3_ramp_blue,False,,False,"['<br><img src=stimuli/b_b_0.jpg style=width:320px></img', '<br><img src=stimuli/b_b_1.jpg style=width:320px></img', '<br><img src=stimuli/b_b_2.jpg style=width:320px></img', '<br><img src=stimuli/b_b_3.jpg style=width:320px></img']",3,,,,2,,0.0-24.0,[0],<br><img src=stimuli/b_b_3.jpg style=width:320px></img,6747,3,,hb_lb_r,351367,surprise_quiz,58,survey-multi-choice,
1505,3_ramp_blue,False,,False,"['<br><img src=stimuli/r_y_0.jpg style=width:320px></img', '<br><img src=stimuli/r_y_1.jpg style=width:320px></img', '<br><img src=stimuli/r_y_2.jpg style=width:320px></img', '<br><img src=stimuli/r_y_3.jpg style=width:320px></img']",3,,,,1,,0.0-25.0,[0],<br><img src=stimuli/r_y_3.jpg style=width:320px></img,6181,3,,lr_hy_r,357551,surprise_quiz,59,survey-multi-choice,
1537,3_ramp_blue,,1,,,3,True,No,False,,2,0.0-5.0-0.0,,No,2650,,stimuli/hb_lb_r_first.jpg,,33042,prediction_trial,7,image-button-response,
1537,3_ramp_blue,,1,,,3,True,No,False,,1,0.0-6.0-0.0,,No,2087,,stimuli/lr_hy_r_first.jpg,,44418,prediction_trial,10,image-button-response,
1537,3_ramp_blue,,0,,,3,False,No,False,,0,0.0-7.0-0.0,,Yes,4711,,stimuli/hb_hy_r_first.jpg,,58018,prediction_trial,13,image-button-response,
1537,3_ramp_blue,,1,,,3,True,No,False,,2,0.0-8.0-0.0,,No,2031,,stimuli/hb_lb_r_first.jpg,,68658,prediction_trial,16,image-button-response,
1537,3_ramp_blue,,0,,,3,False,No,False,,0,0.0-9.0-0.0,,Yes,5799,,stimuli/hb_hy_r_first.jpg,,83714,prediction_trial,19,image-button-response,
1537,3_ramp_blue,,1,,,3,True,No,False,,1,0.0-10.0-0.0,,No,1047,,stimuli/lr_hy_r_first.jpg,,93362,prediction_trial,22,image-button-response,
1537,3_ramp_blue,,1,,,3,True,No,False,,2,0.0-11.0-0.0,,No,743,,stimuli/hb_lb_r_first.jpg,,102761,prediction_trial,25,image-button-response,
1537,3_ramp_blue,,0,,,3,False,Yes,True,,3,0.0-12.0-0.0,,No,639,,stimuli/lr_lb_r_first.jpg,,112321,prediction_trial,28,image-button-response,
1537,3_ramp_blue,,1,,,3,True,No,False,,0,0.0-13.0-0.0,,No,1527,,stimuli/hb_hy_r_first.jpg,,122873,prediction_trial,31,image-button-response,
1537,3_ramp_blue,,1,,,3,True,Yes,True,,3,0.0-14.0-0.0,,Yes,1663,,stimuli/lr_lb_r_first.jpg,,132841,prediction_trial,34,image-button-response,
1537,3_ramp_blue,,1,,,3,True,No,False,,1,0.0-15.0-0.0,,No,1183,,stimuli/lr_hy_r_first.jpg,,143009,prediction_trial,37,image-button-response,
1537,3_ramp_blue,,1,,,3,True,No,False,,0,0.0-16.0-0.0,,No,927,,stimuli/hb_hy_r_first.jpg,,152489,prediction_trial,40,image-button-response,
1537,3_ramp_blue,,1,,,3,True,No,False,,1,0.0-17.0-0.0,,No,1015,,stimuli/lr_hy_r_first.jpg,,161873,prediction_trial,43,image-button-response,
1537,3_ramp_blue,,1,,,3,True,Yes,True,,3,0.0-18.0-0.0,,Yes,2575,,stimuli/lr_lb_r_first.jpg,,172937,prediction_trial,46,image-button-response,
1537,3_ramp_blue,,1,,,3,True,No,False,,2,0.0-19.0-0.0,,No,1159,,stimuli/hb_lb_r_first.jpg,,183209,prediction_trial,49,image-button-response,
1537,3_ramp_blue,,1,,,3,True,Yes,True,,3,0.0-20.0-0.0,,Yes,1495,,stimuli/lr_lb_r_first.jpg,,193465,prediction_trial,52,image-button-response,
1537,3_ramp_blue,True,,True,"['<br><img src=stimuli/r_y_0.jpg style=width:204.8px></img', '<br><img src=stimuli/r_y_1.jpg style=width:204.8px></img', '<br><img src=stimuli/r_y_2.jpg style=width:204.8px></img', '<br><img src=stimuli/r_y_3.jpg style=width:204.8px></img']",3,,,,1,,0.0-22.0,[0],<br><img src=stimuli/r_y_1.jpg style=width:204.8px></img,9550,1,,lr_hy_r,213954,surprise_quiz,56,survey-multi-choice,
1537,3_ramp_blue,True,,True,"['<br><img src=stimuli/r_b_0.jpg style=width:204.8px></img', '<br><img src=stimuli/r_b_1.jpg style=width:204.8px></img', '<br><img src=stimuli/r_b_2.jpg style=width:204.8px></img', '<br><img src=stimuli/r_b_3.jpg style=width:204.8px></img']",3,,,,3,,0.0-23.0,[0],<br><img src=stimuli/r_b_3.jpg style=width:204.8px></img,4709,3,,lr_lb_r,218665,surprise_quiz,57,survey-multi-choice,
1537,3_ramp_blue,False,,True,"['<br><img src=stimuli/b_b_0.jpg style=width:204.8px></img', '<br><img src=stimuli/b_b_1.jpg style=width:204.8px></img', '<br><img src=stimuli/b_b_2.jpg style=width:204.8px></img', '<br><img src=stimuli/b_b_3.jpg style=width:204.8px></img']",3,,,,2,,0.0-24.0,[0],<br><img src=stimuli/b_b_0.jpg style=width:204.8px></img,5135,0,,hb_lb_r,223801,surprise_quiz,58,survey-multi-choice,
1537,3_ramp_blue,False,,True,"['<br><img src=stimuli/b_y_0.jpg style=width:204.8px></img', '<br><img src=stimuli/b_y_1.jpg style=width:204.8px></img', '<br><img src=stimuli/b_y_2.jpg style=width:204.8px></img', '<br><img src=stimuli/b_y_3.jpg style=width:204.8px></img']",3,,,,0,,0.0-25.0,[0],<br><img src=stimuli/b_y_1.jpg style=width:204.8px></img,6926,1,,hb_hy_r,230729,surprise_quiz,59,survey-multi-choice,
1525,3_ramp_blue,,1,,,3,True,Yes,True,,3,0.0-5.0-0.0,,Yes,2835,,stimuli/lr_lb_r_first.jpg,,37665,prediction_trial,7,image-button-response,
1525,3_ramp_blue,,1,,,3,True,No,False,,1,0.0-6.0-0.0,,No,1344,,stimuli/lr_hy_r_first.jpg,,48231,prediction_trial,10,image-button-response,
1525,3_ramp_blue,,0,,,3,False,No,False,,2,0.0-7.0-0.0,,Yes,3041,,stimuli/hb_lb_r_first.jpg,,60136,prediction_trial,13,image-button-response,
1525,3_ramp_blue,,0,,,3,False,No,False,,0,0.0-8.0-0.0,,Yes,2287,,stimuli/hb_hy_r_first.jpg,,71424,prediction_trial,16,image-button-response,
1525,3_ramp_blue,,1,,,3,True,Yes,True,,3,0.0-9.0-0.0,,Yes,903,,stimuli/lr_lb_r_first.jpg,,81002,prediction_trial,19,image-button-response,
1525,3_ramp_blue,,1,,,3,True,No,False,,1,0.0-10.0-0.0,,No,1897,,stimuli/lr_hy_r_first.jpg,,92127,prediction_trial,22,image-button-response,
1525,3_ramp_blue,,1,,,3,True,No,False,,0,0.0-11.0-0.0,,No,637,,stimuli/hb_hy_r_first.jpg,,101323,prediction_trial,25,image-button-response,
1525,3_ramp_blue,,1,,,3,True,Yes,True,,3,0.0-12.0-0.0,,Yes,1198,,stimuli/lr_lb_r_first.jpg,,110770,prediction_trial,28,image-button-response,
1525,3_ramp_blue,,1,,,3,True,No,False,,2,0.0-13.0-0.0,,No,914,,stimuli/hb_lb_r_first.jpg,,120471,prediction_trial,31,image-button-response,
1525,3_ramp_blue,,1,,,3,True,No,False,,1,0.0-14.0-0.0,,No,1150,,stimuli/lr_hy_r_first.jpg,,130409,prediction_trial,34,image-button-response,
1525,3_ramp_blue,,1,,,3,True,No,False,,2,0.0-15.0-0.0,,No,2352,,stimuli/hb_lb_r_first.jpg,,141363,prediction_trial,37,image-button-response,
1525,3_ramp_blue,,1,,,3,True,No,False,,0,0.0-16.0-0.0,,No,930,,stimuli/hb_hy_r_first.jpg,,151124,prediction_trial,40,image-button-response,
1525,3_ramp_blue,,1,,,3,True,No,False,,1,0.0-17.0-0.0,,No,972,,stimuli/lr_hy_r_first.jpg,,160339,prediction_trial,43,image-button-response,
1525,3_ramp_blue,,1,,,3,True,Yes,True,,3,0.0-18.0-0.0,,Yes,998,,stimuli/lr_lb_r_first.jpg,,169980,prediction_trial,46,image-button-response,
1525,3_ramp_blue,,1,,,3,True,No,False,,0,0.0-19.0-0.0,,No,710,,stimuli/hb_hy_r_first.jpg,,179357,prediction_trial,49,image-button-response,
1525,3_ramp_blue,,1,,,3,True,No,False,,2,0.0-20.0-0.0,,No,1340,,stimuli/hb_lb_r_first.jpg,,189124,prediction_trial,52,image-button-response,
1525,3_ramp_blue,True,,False,"['<br><img src=stimuli/b_b_0.jpg style=width:384px></img', '<br><img src=stimuli/b_b_1.jpg style=width:384px></img', '<br><img src=stimuli/b_b_2.jpg style=width:384px></img', '<br><img src=stimuli/b_b_3.jpg style=width:384px></img']",3,,,,2,,0.0-22.0,[0],<br><img src=stimuli/b_b_2.jpg style=width:384px></img,8140,2,,hb_lb_r,211757,surprise_quiz,56,survey-multi-choice,
1525,3_ramp_blue,True,,True,"['<br><img src=stimuli/r_b_0.jpg style=width:384px></img', '<br><img src=stimuli/r_b_1.jpg style=width:384px></img', '<br><img src=stimuli/r_b_2.jpg style=width:384px></img', '<br><img src=stimuli/r_b_3.jpg style=width:384px></img']",3,,,,3,,0.0-23.0,[0],<br><img src=stimuli/r_b_3.jpg style=width:384px></img,3812,3,,lr_lb_r,215572,surprise_quiz,57,survey-multi-choice,
1525,3_ramp_blue,True,,True,"['<br><img src=stimuli/b_y_0.jpg style=width:384px></img', '<br><img src=stimuli/b_y_1.jpg style=width:384px></img', '<br><img src=stimuli/b_y_2.jpg style=width:384px></img', '<br><img src=stimuli/b_y_3.jpg style=width:384px></img']",3,,,,0,,0.0-24.0,[0],<br><img src=stimuli/b_y_0.jpg style=width:384px></img,3661,0,,hb_hy_r,219236,surprise_quiz,58,survey-multi-choice,
1525,3_ramp_blue,False,,False,"['<br><img src=stimuli/r_y_0.jpg style=width:384px></img', '<br><img src=stimuli/r_y_1.jpg style=width:384px></img', '<br><img src=stimuli/r_y_2.jpg style=width:384px></img', '<br><img src=stimuli/r_y_3.jpg style=width:384px></img']",3,,,,1,,0.0-25.0,[0],<br><img src=stimuli/r_y_2.jpg style=width:384px></img,2203,2,,lr_hy_r,221443,surprise_quiz,59,survey-multi-choice,
1545,3_ramp_blue,,0,,,3,False,No,False,,0,0.0-5.0-0.0,,Yes,7017,,stimuli/hb_hy_r_first.jpg,,51670,prediction_trial,7,image-button-response,
1545,3_ramp_blue,,0,,,3,False,Yes,True,,3,0.0-6.0-0.0,,No,1127,,stimuli/lr_lb_r_first.jpg,,61973,prediction_trial,10,image-button-response,
1545,3_ramp_blue,,1,,,3,True,No,False,,0,0.0-7.0-0.0,,No,1295,,stimuli/hb_hy_r_first.jpg,,72581,prediction_trial,13,image-button-response,
1545,3_ramp_blue,,1,,,3,True,Yes,True,,3,0.0-8.0-0.0,,Yes,1265,,stimuli/lr_lb_r_first.jpg,,82591,prediction_trial,16,image-button-response,
1545,3_ramp_blue,,0,,,3,False,No,False,,2,0.0-9.0-0.0,,Yes,1735,,stimuli/hb_lb_r_first.jpg,,93461,prediction_trial,19,image-button-response,
1545,3_ramp_blue,,1,,,3,True,No,False,,0,0.0-10.0-0.0,,No,2615,,stimuli/hb_hy_r_first.jpg,,105149,prediction_trial,22,image-button-response,
1545,3_ramp_blue,,1,,,3,True,No,False,,2,0.0-11.0-0.0,,No,2223,,stimuli/hb_lb_r_first.jpg,,116349,prediction_trial,25,image-button-response,
1545,3_ramp_blue,,1,,,3,True,No,False,,1,0.0-12.0-0.0,,No,2167,,stimuli/lr_hy_r_first.jpg,,127733,prediction_trial,28,image-button-response,
1545,3_ramp_blue,,1,,,3,True,Yes,True,,3,0.0-13.0-0.0,,Yes,1735,,stimuli/lr_lb_r_first.jpg,,138036,prediction_trial,31,image-button-response,
1545,3_ramp_blue,,1,,,3,True,No,False,,1,0.0-14.0-0.0,,No,3519,,stimuli/lr_hy_r_first.jpg,,150372,prediction_trial,34,image-button-response,
1545,3_ramp_blue,,1,,,3,True,No,False,,2,0.0-15.0-0.0,,No,2087,,stimuli/hb_lb_r_first.jpg,,160964,prediction_trial,37,image-button-response,
1545,3_ramp_blue,,1,,,3,True,Yes,True,,3,0.0-16.0-0.0,,Yes,1582,,stimuli/lr_lb_r_first.jpg,,171324,prediction_trial,40,image-button-response,
1545,3_ramp_blue,,1,,,3,True,No,False,,1,0.0-17.0-0.0,,No,1823,,stimuli/lr_hy_r_first.jpg,,182780,prediction_trial,43,image-button-response,
1545,3_ramp_blue,,1,,,3,True,No,False,,0,0.0-18.0-0.0,,No,2199,,stimuli/hb_hy_r_first.jpg,,985833,prediction_trial,46,image-button-response,
1545,3_ramp_blue,,0,,,3,False,No,False,,2,0.0-19.0-0.0,,Yes,4047,,stimuli/hb_lb_r_first.jpg,,998457,prediction_trial,49,image-button-response,
1545,3_ramp_blue,,1,,,3,True,No,False,,1,0.0-20.0-0.0,,No,2391,,stimuli/lr_hy_r_first.jpg,,1009625,prediction_trial,52,image-button-response,
1545,3_ramp_blue,True,,True,"['<br><img src=stimuli/r_b_0.jpg style=width:384px></img', '<br><img src=stimuli/r_b_1.jpg style=width:384px></img', '<br><img src=stimuli/r_b_2.jpg style=width:384px></img', '<br><img src=stimuli/r_b_3.jpg style=width:384px></img']",3,,,,3,,0.0-22.0,[0],<br><img src=stimuli/r_b_3.jpg style=width:384px></img,6776,3,,lr_lb_r,1029738,surprise_quiz,56,survey-multi-choice,
1545,3_ramp_blue,True,,True,"['<br><img src=stimuli/r_y_0.jpg style=width:384px></img', '<br><img src=stimuli/r_y_1.jpg style=width:384px></img', '<br><img src=stimuli/r_y_2.jpg style=width:384px></img', '<br><img src=stimuli/r_y_3.jpg style=width:384px></img']",3,,,,1,,0.0-23.0,[0],<br><img src=stimuli/r_y_1.jpg style=width:384px></img,7597,1,,lr_hy_r,1037369,surprise_quiz,57,survey-multi-choice,
1545,3_ramp_blue,False,,False,"['<br><img src=stimuli/b_y_0.jpg style=width:384px></img', '<br><img src=stimuli/b_y_1.jpg style=width:384px></img', '<br><img src=stimuli/b_y_2.jpg style=width:384px></img', '<br><img src=stimuli/b_y_3.jpg style=width:384px></img']",3,,,,0,,0.0-24.0,[0],<br><img src=stimuli/b_y_2.jpg style=width:384px></img,3311,2,,hb_hy_r,1040681,surprise_quiz,58,survey-multi-choice,
1545,3_ramp_blue,True,,False,"['<br><img src=stimuli/b_b_0.jpg style=width:384px></img', '<br><img src=stimuli/b_b_1.jpg style=width:384px></img', '<br><img src=stimuli/b_b_2.jpg style=width:384px></img', '<br><img src=stimuli/b_b_3.jpg style=width:384px></img']",3,,,,2,,0.0-25.0,[0],<br><img src=stimuli/b_b_2.jpg style=width:384px></img,3278,2,,hb_lb_r,1043961,surprise_quiz,59,survey-multi-choice,
1573,3_ramp_blue,,0,,,3,False,Yes,True,,3,0.0-5.0-0.0,,No,4188,,stimuli/lr_lb_r_first.jpg,,37064,prediction_trial,7,image-button-response,
1573,3_ramp_blue,,1,,,3,True,No,False,,2,0.0-6.0-0.0,,No,1516,,stimuli/hb_lb_r_first.jpg,,48101,prediction_trial,10,image-button-response,
1573,3_ramp_blue,,1,,,3,True,No,False,,0,0.0-7.0-0.0,,No,1028,,stimuli/hb_hy_r_first.jpg,,58233,prediction_trial,13,image-button-response,
1573,3_ramp_blue,,1,,,3,True,No,False,,1,0.0-8.0-0.0,,No,846,,stimuli/lr_hy_r_first.jpg,,67571,prediction_trial,16,image-button-response,
1573,3_ramp_blue,,0,,,3,False,Yes,True,,3,0.0-9.0-0.0,,No,764,,stimuli/lr_lb_r_first.jpg,,76942,prediction_trial,19,image-button-response,
1573,3_ramp_blue,,1,,,3,True,No,False,,1,0.0-10.0-0.0,,No,1916,,stimuli/lr_hy_r_first.jpg,,87877,prediction_trial,22,image-button-response,
1573,3_ramp_blue,,1,,,3,True,No,False,,0,0.0-11.0-0.0,,No,1149,,stimuli/hb_hy_r_first.jpg,,97546,prediction_trial,25,image-button-response,
1573,3_ramp_blue,,0,,,3,False,Yes,True,,3,0.0-12.0-0.0,,No,989,,stimuli/lr_lb_r_first.jpg,,107007,prediction_trial,28,image-button-response,
1573,3_ramp_blue,,1,,,3,True,No,False,,1,0.0-13.0-0.0,,No,1381,,stimuli/lr_hy_r_first.jpg,,117418,prediction_trial,31,image-button-response,
1573,3_ramp_blue,,1,,,3,True,No,False,,2,0.0-14.0-0.0,,No,730,,stimuli/hb_lb_r_first.jpg,,126737,prediction_trial,34,image-button-response,
1573,3_ramp_blue,,1,,,3,True,No,False,,0,0.0-15.0-0.0,,No,531,,stimuli/hb_hy_r_first.jpg,,136106,prediction_trial,37,image-button-response,
1573,3_ramp_blue,,0,,,3,False,Yes,True,,3,0.0-16.0-0.0,,No,466,,stimuli/lr_lb_r_first.jpg,,144976,prediction_trial,40,image-button-response,
1573,3_ramp_blue,,1,,,3,True,No,False,,0,0.0-17.0-0.0,,No,617,,stimuli/hb_hy_r_first.jpg,,154480,prediction_trial,43,image-button-response,
1573,3_ramp_blue,,1,,,3,True,No,False,,2,0.0-18.0-0.0,,No,1067,,stimuli/hb_lb_r_first.jpg,,163965,prediction_trial,46,image-button-response,
1573,3_ramp_blue,,1,,,3,True,No,False,,1,0.0-19.0-0.0,,No,782,,stimuli/lr_hy_r_first.jpg,,173433,prediction_trial,49,image-button-response,
1573,3_ramp_blue,,1,,,3,True,No,False,,2,0.0-20.0-0.0,,No,857,,stimuli/hb_lb_r_first.jpg,,242230,prediction_trial,52,image-button-response,
1573,3_ramp_blue,False,,False,"['<br><img src=stimuli/r_y_0.jpg style=width:256px></img', '<br><img src=stimuli/r_y_1.jpg style=width:256px></img', '<br><img src=stimuli/r_y_2.jpg style=width:256px></img', '<br><img src=stimuli/r_y_3.jpg style=width:256px></img']",3,,,,1,,0.0-22.0,[0],<br><img src=stimuli/r_y_3.jpg style=width:256px></img,6765,3,,lr_hy_r,264417,surprise_quiz,56,survey-multi-choice,
1573,3_ramp_blue,True,,False,"['<br><img src=stimuli/b_b_0.jpg style=width:256px></img', '<br><img src=stimuli/b_b_1.jpg style=width:256px></img', '<br><img src=stimuli/b_b_2.jpg style=width:256px></img', '<br><img src=stimuli/b_b_3.jpg style=width:256px></img']",3,,,,2,,0.0-23.0,[0],<br><img src=stimuli/b_b_2.jpg style=width:256px></img,3107,2,,hb_lb_r,267527,surprise_quiz,57,survey-multi-choice,
1573,3_ramp_blue,False,,False,"['<br><img src=stimuli/b_y_0.jpg style=width:256px></img', '<br><img src=stimuli/b_y_1.jpg style=width:256px></img', '<br><img src=stimuli/b_y_2.jpg style=width:256px></img', '<br><img src=stimuli/b_y_3.jpg style=width:256px></img']",3,,,,0,,0.0-24.0,[0],<br><img src=stimuli/b_y_3.jpg style=width:256px></img,1834,3,,hb_hy_r,269363,surprise_quiz,58,survey-multi-choice,
1573,3_ramp_blue,True,,True,"['<br><img src=stimuli/r_b_0.jpg style=width:256px></img', '<br><img src=stimuli/r_b_1.jpg style=width:256px></img', '<br><img src=stimuli/r_b_2.jpg style=width:256px></img', '<br><img src=stimuli/r_b_3.jpg style=width:256px></img']",3,,,,3,,0.0-25.0,[0],<br><img src=stimuli/r_b_3.jpg style=width:256px></img,1265,3,,lr_lb_r,270629,surprise_quiz,59,survey-multi-choice,
1529,3_ramp_blue,,0,,,3,False,No,False,,1,0.0-5.0-0.0,,Yes,3375,,stimuli/lr_hy_r_first.jpg,,73050,prediction_trial,7,image-button-response,
1529,3_ramp_blue,,0,,,3,False,No,False,,0,0.0-6.0-0.0,,Yes,1422,,stimuli/hb_hy_r_first.jpg,,84878,prediction_trial,10,image-button-response,
1529,3_ramp_blue,,1,,,3,True,No,False,,1,0.0-7.0-0.0,,No,1639,,stimuli/lr_hy_r_first.jpg,,95807,prediction_trial,13,image-button-response,
1529,3_ramp_blue,,0,,,3,False,No,False,,2,0.0-8.0-0.0,,Yes,4018,,stimuli/hb_lb_r_first.jpg,,109062,prediction_trial,16,image-button-response,
1529,3_ramp_blue,,0,,,3,False,No,False,,1,0.0-9.0-0.0,,Yes,969,,stimuli/lr_hy_r_first.jpg,,120622,prediction_trial,19,image-button-response,
1529,3_ramp_blue,,1,,,3,True,Yes,True,,3,0.0-10.0-0.0,,Yes,1686,,stimuli/lr_lb_r_first.jpg,,134478,prediction_trial,22,image-button-response,
1529,3_ramp_blue,,1,,,3,True,No,False,,2,0.0-11.0-0.0,,No,4054,,stimuli/hb_lb_r_first.jpg,,149686,prediction_trial,25,image-button-response,
1529,3_ramp_blue,,1,,,3,True,Yes,True,,3,0.0-12.0-0.0,,Yes,1821,,stimuli/lr_lb_r_first.jpg,,161742,prediction_trial,28,image-button-response,
1529,3_ramp_blue,,1,,,3,True,No,False,,0,0.0-13.0-0.0,,No,3293,,stimuli/hb_hy_r_first.jpg,,177622,prediction_trial,31,image-button-response,
1529,3_ramp_blue,,1,,,3,True,No,False,,2,0.0-14.0-0.0,,No,3606,,stimuli/hb_lb_r_first.jpg,,190925,prediction_trial,34,image-button-response,
1529,3_ramp_blue,,1,,,3,True,No,False,,0,0.0-15.0-0.0,,No,1640,,stimuli/hb_hy_r_first.jpg,,202280,prediction_trial,37,image-button-response,
1529,3_ramp_blue,,1,,,3,True,Yes,True,,3,0.0-16.0-0.0,,Yes,2397,,stimuli/lr_lb_r_first.jpg,,213197,prediction_trial,40,image-button-response,
1529,3_ramp_blue,,1,,,3,True,No,False,,0,0.0-17.0-0.0,,No,1292,,stimuli/hb_hy_r_first.jpg,,223613,prediction_trial,43,image-button-response,
1529,3_ramp_blue,,1,,,3,True,No,False,,2,0.0-18.0-0.0,,No,1742,,stimuli/hb_lb_r_first.jpg,,234094,prediction_trial,46,image-button-response,
1529,3_ramp_blue,,1,,,3,True,Yes,True,,3,0.0-19.0-0.0,,Yes,1886,,stimuli/lr_lb_r_first.jpg,,245565,prediction_trial,49,image-button-response,
1529,3_ramp_blue,,1,,,3,True,No,False,,1,0.0-20.0-0.0,,No,2165,,stimuli/lr_hy_r_first.jpg,,260492,prediction_trial,52,image-button-response,
1529,3_ramp_blue,True,,True,"['<br><img src=stimuli/r_y_0.jpg style=width:384px></img', '<br><img src=stimuli/r_y_1.jpg style=width:384px></img', '<br><img src=stimuli/r_y_2.jpg style=width:384px></img', '<br><img src=stimuli/r_y_3.jpg style=width:384px></img']",3,,,,1,,0.0-22.0,[0],<br><img src=stimuli/r_y_1.jpg style=width:384px></img,9007,1,,lr_hy_r,284856,surprise_quiz,56,survey-multi-choice,
1529,3_ramp_blue,True,,True,"['<br><img src=stimuli/r_b_0.jpg style=width:384px></img', '<br><img src=stimuli/r_b_1.jpg style=width:384px></img', '<br><img src=stimuli/r_b_2.jpg style=width:384px></img', '<br><img src=stimuli/r_b_3.jpg style=width:384px></img']",3,,,,3,,0.0-23.0,[0],<br><img src=stimuli/r_b_3.jpg style=width:384px></img,4739,3,,lr_lb_r,289598,surprise_quiz,57,survey-multi-choice,
1529,3_ramp_blue,True,,True,"['<br><img src=stimuli/b_y_0.jpg style=width:384px></img', '<br><img src=stimuli/b_y_1.jpg style=width:384px></img', '<br><img src=stimuli/b_y_2.jpg style=width:384px></img', '<br><img src=stimuli/b_y_3.jpg style=width:384px></img']",3,,,,0,,0.0-24.0,[0],<br><img src=stimuli/b_y_0.jpg style=width:384px></img,5517,0,,hb_hy_r,295117,surprise_quiz,58,survey-multi-choice,
1529,3_ramp_blue,True,,False,"['<br><img src=stimuli/b_b_0.jpg style=width:384px></img', '<br><img src=stimuli/b_b_1.jpg style=width:384px></img', '<br><img src=stimuli/b_b_2.jpg style=width:384px></img', '<br><img src=stimuli/b_b_3.jpg style=width:384px></img']",3,,,,2,,0.0-25.0,[0],<br><img src=stimuli/b_b_2.jpg style=width:384px></img,4111,2,,hb_lb_r,299231,surprise_quiz,59,survey-multi-choice,
1601,3_ramp_blue,,1,,,3,True,Yes,True,,3,0.0-5.0-0.0,,Yes,8182,,stimuli/lr_lb_r_first.jpg,,89757,prediction_trial,7,image-button-response,
1601,3_ramp_blue,,1,,,3,True,No,False,,0,0.0-6.0-0.0,,No,3258,,stimuli/hb_hy_r_first.jpg,,102784,prediction_trial,10,image-button-response,
1601,3_ramp_blue,,0,,,3,False,No,False,,2,0.0-7.0-0.0,,Yes,3341,,stimuli/hb_lb_r_first.jpg,,117556,prediction_trial,13,image-button-response,
1601,3_ramp_blue,,0,,,3,False,No,False,,1,0.0-8.0-0.0,,Yes,1908,,stimuli/lr_hy_r_first.jpg,,128966,prediction_trial,16,image-button-response,
1601,3_ramp_blue,,1,,,3,True,Yes,True,,3,0.0-9.0-0.0,,Yes,1171,,stimuli/lr_lb_r_first.jpg,,138944,prediction_trial,19,image-button-response,
1601,3_ramp_blue,,1,,,3,True,No,False,,1,0.0-10.0-0.0,,No,1385,,stimuli/lr_hy_r_first.jpg,,149808,prediction_trial,22,image-button-response,
1601,3_ramp_blue,,1,,,3,True,No,False,,2,0.0-11.0-0.0,,No,1123,,stimuli/hb_lb_r_first.jpg,,159769,prediction_trial,25,image-button-response,
1601,3_ramp_blue,,1,,,3,True,Yes,True,,3,0.0-12.0-0.0,,Yes,1187,,stimuli/lr_lb_r_first.jpg,,169969,prediction_trial,28,image-button-response,
1601,3_ramp_blue,,1,,,3,True,No,False,,1,0.0-13.0-0.0,,No,1668,,stimuli/lr_hy_r_first.jpg,,180917,prediction_trial,31,image-button-response,
1601,3_ramp_blue,,1,,,3,True,No,False,,0,0.0-14.0-0.0,,No,1578,,stimuli/hb_hy_r_first.jpg,,191564,prediction_trial,34,image-button-response,
1601,3_ramp_blue,,1,,,3,True,No,False,,2,0.0-15.0-0.0,,No,1127,,stimuli/hb_lb_r_first.jpg,,202040,prediction_trial,37,image-button-response,
1601,3_ramp_blue,,1,,,3,True,Yes,True,,3,0.0-16.0-0.0,,Yes,1454,,stimuli/lr_lb_r_first.jpg,,212566,prediction_trial,40,image-button-response,
1601,3_ramp_blue,,1,,,3,True,No,False,,0,0.0-17.0-0.0,,No,2601,,stimuli/hb_hy_r_first.jpg,,225317,prediction_trial,43,image-button-response,
1601,3_ramp_blue,,1,,,3,True,No,False,,2,0.0-18.0-0.0,,No,2551,,stimuli/hb_lb_r_first.jpg,,236336,prediction_trial,46,image-button-response,
1601,3_ramp_blue,,1,,,3,True,No,False,,0,0.0-19.0-0.0,,No,1015,,stimuli/hb_hy_r_first.jpg,,246084,prediction_trial,49,image-button-response,
1601,3_ramp_blue,,1,,,3,True,No,False,,1,0.0-20.0-0.0,,No,1631,,stimuli/lr_hy_r_first.jpg,,257157,prediction_trial,52,image-button-response,
1601,3_ramp_blue,True,,True,"['<br><img src=stimuli/r_b_0.jpg style=width:512px></img', '<br><img src=stimuli/r_b_1.jpg style=width:512px></img', '<br><img src=stimuli/r_b_2.jpg style=width:512px></img', '<br><img src=stimuli/r_b_3.jpg style=width:512px></img']",3,,,,3,,0.0-22.0,[0],<br><img src=stimuli/r_b_3.jpg style=width:512px></img,5753,3,,lr_lb_r,283014,surprise_quiz,56,survey-multi-choice,
1601,3_ramp_blue,True,,True,"['<br><img src=stimuli/b_y_0.jpg style=width:512px></img', '<br><img src=stimuli/b_y_1.jpg style=width:512px></img', '<br><img src=stimuli/b_y_2.jpg style=width:512px></img', '<br><img src=stimuli/b_y_3.jpg style=width:512px></img']",3,,,,0,,0.0-23.0,[0],<br><img src=stimuli/b_y_0.jpg style=width:512px></img,5596,0,,hb_hy_r,288612,surprise_quiz,57,survey-multi-choice,
1601,3_ramp_blue,False,,False,"['<br><img src=stimuli/r_y_0.jpg style=width:512px></img', '<br><img src=stimuli/r_y_1.jpg style=width:512px></img', '<br><img src=stimuli/r_y_2.jpg style=width:512px></img', '<br><img src=stimuli/r_y_3.jpg style=width:512px></img']",3,,,,1,,0.0-24.0,[0],<br><img src=stimuli/r_y_2.jpg style=width:512px></img,9285,2,,lr_hy_r,297899,surprise_quiz,58,survey-multi-choice,
1601,3_ramp_blue,False,,True,"['<br><img src=stimuli/b_b_0.jpg style=width:512px></img', '<br><img src=stimuli/b_b_1.jpg style=width:512px></img', '<br><img src=stimuli/b_b_2.jpg style=width:512px></img', '<br><img src=stimuli/b_b_3.jpg style=width:512px></img']",3,,,,2,,0.0-25.0,[0],<br><img src=stimuli/b_b_1.jpg style=width:512px></img,2405,1,,hb_lb_r,300305,surprise_quiz,59,survey-multi-choice,
1517,3_ramp_blue,,1,,,3,True,Yes,True,,3,0.0-5.0-0.0,,Yes,3669,,stimuli/lr_lb_r_first.jpg,,171552,prediction_trial,11,image-button-response,
1517,3_ramp_blue,,0,,,3,False,No,False,,0,0.0-6.0-0.0,,Yes,2811,,stimuli/hb_hy_r_first.jpg,,185498,prediction_trial,14,image-button-response,
1517,3_ramp_blue,,0,,,3,False,No,False,,2,0.0-7.0-0.0,,Yes,2149,,stimuli/hb_lb_r_first.jpg,,200717,prediction_trial,17,image-button-response,
1517,3_ramp_blue,,0,,,3,False,No,False,,1,0.0-8.0-0.0,,Yes,1823,,stimuli/lr_hy_r_first.jpg,,211845,prediction_trial,20,image-button-response,
1517,3_ramp_blue,,1,,,3,True,No,False,,0,0.0-9.0-0.0,,No,1657,,stimuli/hb_hy_r_first.jpg,,222758,prediction_trial,23,image-button-response,
1517,3_ramp_blue,,1,,,3,True,No,False,,1,0.0-10.0-0.0,,No,1379,,stimuli/lr_hy_r_first.jpg,,233092,prediction_trial,26,image-button-response,
1517,3_ramp_blue,,0,,,3,False,Yes,True,,3,0.0-11.0-0.0,,No,1727,,stimuli/lr_lb_r_first.jpg,,246341,prediction_trial,29,image-button-response,
1517,3_ramp_blue,,0,,,3,False,No,False,,2,0.0-12.0-0.0,,Yes,1814,,stimuli/hb_lb_r_first.jpg,,264373,prediction_trial,32,image-button-response,
1517,3_ramp_blue,,0,,,3,False,Yes,True,,3,0.0-13.0-0.0,,No,1267,,stimuli/lr_lb_r_first.jpg,,287877,prediction_trial,35,image-button-response,
1517,3_ramp_blue,,0,,,3,False,No,False,,1,0.0-14.0-0.0,,Yes,1610,,stimuli/lr_hy_r_first.jpg,,298981,prediction_trial,38,image-button-response,
1517,3_ramp_blue,,0,,,3,False,No,False,,2,0.0-15.0-0.0,,Yes,2092,,stimuli/hb_lb_r_first.jpg,,312573,prediction_trial,41,image-button-response,
1517,3_ramp_blue,,0,,,3,False,Yes,True,,3,0.0-16.0-0.0,,No,1014,,stimuli/lr_lb_r_first.jpg,,336934,prediction_trial,44,image-button-response,
1517,3_ramp_blue,,0,,,3,False,No,False,,0,0.0-17.0-0.0,,Yes,780,,stimuli/hb_hy_r_first.jpg,,346984,prediction_trial,47,image-button-response,
1517,3_ramp_blue,,0,,,3,False,No,False,,2,0.0-18.0-0.0,,Yes,941,,stimuli/hb_lb_r_first.jpg,,370658,prediction_trial,50,image-button-response,
1517,3_ramp_blue,,0,,,3,False,No,False,,0,0.0-19.0-0.0,,Yes,23558,,stimuli/hb_hy_r_first.jpg,,403427,prediction_trial,53,image-button-response,
1517,3_ramp_blue,,1,,,3,True,No,False,,1,0.0-20.0-0.0,,No,1181,,stimuli/lr_hy_r_first.jpg,,414527,prediction_trial,56,image-button-response,
1517,3_ramp_blue,False,,False,"['<br><img src=stimuli/b_y_0.jpg style=width:273.2px></img', '<br><img src=stimuli/b_y_1.jpg style=width:273.2px></img', '<br><img src=stimuli/b_y_2.jpg style=width:273.2px></img', '<br><img src=stimuli/b_y_3.jpg style=width:273.2px></img']",3,,,,0,,0.0-22.0,[0],<br><img src=stimuli/b_y_2.jpg style=width:273.2px></img,13662,2,,hb_hy_r,452014,surprise_quiz,60,survey-multi-choice,
1517,3_ramp_blue,False,,True,"['<br><img src=stimuli/r_b_0.jpg style=width:273.2px></img', '<br><img src=stimuli/r_b_1.jpg style=width:273.2px></img', '<br><img src=stimuli/r_b_2.jpg style=width:273.2px></img', '<br><img src=stimuli/r_b_3.jpg style=width:273.2px></img']",3,,,,3,,0.0-23.0,[0],<br><img src=stimuli/r_b_2.jpg style=width:273.2px></img,3601,2,,lr_lb_r,455621,surprise_quiz,61,survey-multi-choice,
1517,3_ramp_blue,True,,False,"['<br><img src=stimuli/b_b_0.jpg style=width:273.2px></img', '<br><img src=stimuli/b_b_1.jpg style=width:273.2px></img', '<br><img src=stimuli/b_b_2.jpg style=width:273.2px></img', '<br><img src=stimuli/b_b_3.jpg style=width:273.2px></img']",3,,,,2,,0.0-24.0,[0],<br><img src=stimuli/b_b_2.jpg style=width:273.2px></img,3915,2,,hb_lb_r,459541,surprise_quiz,62,survey-multi-choice,
1517,3_ramp_blue,False,,False,"['<br><img src=stimuli/r_y_0.jpg style=width:273.2px></img', '<br><img src=stimuli/r_y_1.jpg style=width:273.2px></img', '<br><img src=stimuli/r_y_2.jpg style=width:273.2px></img', '<br><img src=stimuli/r_y_3.jpg style=width:273.2px></img']",3,,,,1,,0.0-25.0,[0],<br><img src=stimuli/r_y_2.jpg style=width:273.2px></img,3293,2,,lr_hy_r,462841,surprise_quiz,63,survey-multi-choice,
1609,3_ramp_blue,,1,,,3,True,No,False,,0,0.0-5.0-0.0,,No,8610,,stimuli/hb_hy_r_first.jpg,,72355,prediction_trial,7,image-button-response,
1609,3_ramp_blue,,0,,,3,False,No,False,,1,0.0-6.0-0.0,,Yes,3556,,stimuli/lr_hy_r_first.jpg,,86449,prediction_trial,10,image-button-response,
1609,3_ramp_blue,,1,,,3,True,Yes,True,,3,0.0-7.0-0.0,,Yes,2589,,stimuli/lr_lb_r_first.jpg,,100759,prediction_trial,13,image-button-response,
1609,3_ramp_blue,,1,,,3,True,No,False,,2,0.0-8.0-0.0,,No,2441,,stimuli/hb_lb_r_first.jpg,,116224,prediction_trial,16,image-button-response,
1609,3_ramp_blue,,1,,,3,True,Yes,True,,3,0.0-9.0-0.0,,Yes,2378,,stimuli/lr_lb_r_first.jpg,,128707,prediction_trial,19,image-button-response,
1609,3_ramp_blue,,0,,,3,False,No,False,,0,0.0-10.0-0.0,,Yes,2730,,stimuli/hb_hy_r_first.jpg,,141441,prediction_trial,22,image-button-response,
1609,3_ramp_blue,,1,,,3,True,No,False,,2,0.0-11.0-0.0,,No,3743,,stimuli/hb_lb_r_first.jpg,,154635,prediction_trial,25,image-button-response,
1609,3_ramp_blue,,1,,,3,True,No,False,,1,0.0-12.0-0.0,,No,1929,,stimuli/lr_hy_r_first.jpg,,166946,prediction_trial,28,image-button-response,
1609,3_ramp_blue,,1,,,3,True,Yes,True,,3,0.0-13.0-0.0,,Yes,1655,,stimuli/lr_lb_r_first.jpg,,179456,prediction_trial,31,image-button-response,
1609,3_ramp_blue,,1,,,3,True,No,False,,2,0.0-14.0-0.0,,No,1527,,stimuli/hb_lb_r_first.jpg,,190844,prediction_trial,34,image-button-response,
1609,3_ramp_blue,,1,,,3,True,No,False,,1,0.0-15.0-0.0,,No,4350,,stimuli/lr_hy_r_first.jpg,,204840,prediction_trial,37,image-button-response,
1609,3_ramp_blue,,1,,,3,True,Yes,True,,3,0.0-16.0-0.0,,Yes,2137,,stimuli/lr_lb_r_first.jpg,,217797,prediction_trial,40,image-button-response,
1609,3_ramp_blue,,1,,,3,True,No,False,,0,0.0-17.0-0.0,,No,1713,,stimuli/hb_hy_r_first.jpg,,229357,prediction_trial,43,image-button-response,
1609,3_ramp_blue,,1,,,3,True,No,False,,2,0.0-18.0-0.0,,No,2211,,stimuli/hb_lb_r_first.jpg,,240522,prediction_trial,46,image-button-response,
1609,3_ramp_blue,,1,,,3,True,No,False,,0,0.0-19.0-0.0,,No,1322,,stimuli/hb_hy_r_first.jpg,,251646,prediction_trial,49,image-button-response,
1609,3_ramp_blue,,1,,,3,True,No,False,,1,0.0-20.0-0.0,,No,2344,,stimuli/lr_hy_r_first.jpg,,263031,prediction_trial,52,image-button-response,
1609,3_ramp_blue,True,,False,"['<br><img src=stimuli/b_b_0.jpg style=width:320px></img', '<br><img src=stimuli/b_b_1.jpg style=width:320px></img', '<br><img src=stimuli/b_b_2.jpg style=width:320px></img', '<br><img src=stimuli/b_b_3.jpg style=width:320px></img']",3,,,,2,,0.0-22.0,[0],<br><img src=stimuli/b_b_2.jpg style=width:320px></img,9212,2,,hb_lb_r,286424,surprise_quiz,56,survey-multi-choice,
1609,3_ramp_blue,False,,True,"['<br><img src=stimuli/b_y_0.jpg style=width:320px></img', '<br><img src=stimuli/b_y_1.jpg style=width:320px></img', '<br><img src=stimuli/b_y_2.jpg style=width:320px></img', '<br><img src=stimuli/b_y_3.jpg style=width:320px></img']",3,,,,0,,0.0-23.0,[0],<br><img src=stimuli/b_y_1.jpg style=width:320px></img,5880,1,,hb_hy_r,292310,surprise_quiz,57,survey-multi-choice,
1609,3_ramp_blue,True,,True,"['<br><img src=stimuli/r_b_0.jpg style=width:320px></img', '<br><img src=stimuli/r_b_1.jpg style=width:320px></img', '<br><img src=stimuli/r_b_2.jpg style=width:320px></img', '<br><img src=stimuli/r_b_3.jpg style=width:320px></img']",3,,,,3,,0.0-24.0,[0],<br><img src=stimuli/r_b_3.jpg style=width:320px></img,5012,3,,lr_lb_r,297327,surprise_quiz,58,survey-multi-choice,
1609,3_ramp_blue,True,,True,"['<br><img src=stimuli/r_y_0.jpg style=width:320px></img', '<br><img src=stimuli/r_y_1.jpg style=width:320px></img', '<br><img src=stimuli/r_y_2.jpg style=width:320px></img', '<br><img src=stimuli/r_y_3.jpg style=width:320px></img']",3,,,,1,,0.0-25.0,[0],<br><img src=stimuli/r_y_1.jpg style=width:320px></img,4548,1,,lr_hy_r,301880,surprise_quiz,59,survey-multi-choice,
1553,3_ramp_blue,,1,,,3,True,No,False,,0,0.0-5.0-0.0,,No,3774,,stimuli/hb_hy_r_first.jpg,,59585,prediction_trial,7,image-button-response,
1553,3_ramp_blue,,0,,,3,False,No,False,,2,0.0-6.0-0.0,,Yes,1542,,stimuli/hb_lb_r_first.jpg,,70375,prediction_trial,10,image-button-response,
1553,3_ramp_blue,,1,,,3,True,Yes,True,,3,0.0-7.0-0.0,,Yes,1626,,stimuli/lr_lb_r_first.jpg,,81016,prediction_trial,13,image-button-response,
1553,3_ramp_blue,,0,,,3,False,No,False,,1,0.0-8.0-0.0,,Yes,2172,,stimuli/lr_hy_r_first.jpg,,92760,prediction_trial,16,image-button-response,
1553,3_ramp_blue,,1,,,3,True,Yes,True,,3,0.0-9.0-0.0,,Yes,1757,,stimuli/lr_lb_r_first.jpg,,103161,prediction_trial,19,image-button-response,
1553,3_ramp_blue,,1,,,3,True,No,False,,2,0.0-10.0-0.0,,No,1218,,stimuli/hb_lb_r_first.jpg,,113315,prediction_trial,22,image-button-response,
1553,3_ramp_blue,,1,,,3,True,No,False,,0,0.0-11.0-0.0,,No,782,,stimuli/hb_hy_r_first.jpg,,122992,prediction_trial,25,image-button-response,
1553,3_ramp_blue,,1,,,3,True,No,False,,1,0.0-12.0-0.0,,No,1031,,stimuli/lr_hy_r_first.jpg,,132164,prediction_trial,28,image-button-response,
1553,3_ramp_blue,,1,,,3,True,No,False,,2,0.0-13.0-0.0,,No,1813,,stimuli/hb_lb_r_first.jpg,,144146,prediction_trial,31,image-button-response,
1553,3_ramp_blue,,0,,,3,False,No,False,,1,0.0-14.0-0.0,,Yes,1039,,stimuli/lr_hy_r_first.jpg,,154361,prediction_trial,34,image-button-response,
1553,3_ramp_blue,,1,,,3,True,Yes,True,,3,0.0-15.0-0.0,,Yes,1031,,stimuli/lr_lb_r_first.jpg,,164606,prediction_trial,37,image-button-response,
1553,3_ramp_blue,,1,,,3,True,No,False,,2,0.0-16.0-0.0,,No,799,,stimuli/hb_lb_r_first.jpg,,174252,prediction_trial,40,image-button-response,
1553,3_ramp_blue,,1,,,3,True,No,False,,0,0.0-17.0-0.0,,No,878,,stimuli/hb_hy_r_first.jpg,,184368,prediction_trial,43,image-button-response,
1553,3_ramp_blue,,1,,,3,True,Yes,True,,3,0.0-18.0-0.0,,Yes,881,,stimuli/lr_lb_r_first.jpg,,194419,prediction_trial,46,image-button-response,
1553,3_ramp_blue,,1,,,3,True,No,False,,1,0.0-19.0-0.0,,No,1062,,stimuli/lr_hy_r_first.jpg,,208307,prediction_trial,49,image-button-response,
1553,3_ramp_blue,,1,,,3,True,No,False,,0,0.0-20.0-0.0,,No,1506,,stimuli/hb_hy_r_first.jpg,,234606,prediction_trial,52,image-button-response,
1553,3_ramp_blue,True,,True,"['<br><img src=stimuli/r_y_0.jpg style=width:288px></img', '<br><img src=stimuli/r_y_1.jpg style=width:288px></img', '<br><img src=stimuli/r_y_2.jpg style=width:288px></img', '<br><img src=stimuli/r_y_3.jpg style=width:288px></img']",3,,,,1,,0.0-22.0,[0],<br><img src=stimuli/r_y_1.jpg style=width:288px></img,6169,1,,lr_hy_r,256147,surprise_quiz,56,survey-multi-choice,
1553,3_ramp_blue,False,,True,"['<br><img src=stimuli/b_y_0.jpg style=width:288px></img', '<br><img src=stimuli/b_y_1.jpg style=width:288px></img', '<br><img src=stimuli/b_y_2.jpg style=width:288px></img', '<br><img src=stimuli/b_y_3.jpg style=width:288px></img']",3,,,,0,,0.0-23.0,[0],<br><img src=stimuli/b_y_1.jpg style=width:288px></img,4827,1,,hb_hy_r,260976,surprise_quiz,57,survey-multi-choice,
1553,3_ramp_blue,True,,False,"['<br><img src=stimuli/b_b_0.jpg style=width:288px></img', '<br><img src=stimuli/b_b_1.jpg style=width:288px></img', '<br><img src=stimuli/b_b_2.jpg style=width:288px></img', '<br><img src=stimuli/b_b_3.jpg style=width:288px></img']",3,,,,2,,0.0-24.0,[0],<br><img src=stimuli/b_b_2.jpg style=width:288px></img,4462,2,,hb_lb_r,265439,surprise_quiz,58,survey-multi-choice,
1553,3_ramp_blue,True,,True,"['<br><img src=stimuli/r_b_0.jpg style=width:288px></img', '<br><img src=stimuli/r_b_1.jpg style=width:288px></img', '<br><img src=stimuli/r_b_2.jpg style=width:288px></img', '<br><img src=stimuli/r_b_3.jpg style=width:288px></img']",3,,,,3,,0.0-25.0,[0],<br><img src=stimuli/r_b_3.jpg style=width:288px></img,2380,3,,lr_lb_r,267821,surprise_quiz,59,survey-multi-choice,
1549,3_ramp_blue,,0,,,3,False,No,False,,2,0.0-5.0-0.0,,Yes,4307,,stimuli/hb_lb_r_first.jpg,,48580,prediction_trial,7,image-button-response,
1549,3_ramp_blue,,0,,,3,False,No,False,,1,0.0-6.0-0.0,,Yes,3423,,stimuli/lr_hy_r_first.jpg,,62706,prediction_trial,10,image-button-response,
1549,3_ramp_blue,,1,,,3,True,No,False,,0,0.0-7.0-0.0,,No,2332,,stimuli/hb_hy_r_first.jpg,,74936,prediction_trial,13,image-button-response,
1549,3_ramp_blue,,0,,,3,False,Yes,True,,3,0.0-8.0-0.0,,No,2346,,stimuli/lr_lb_r_first.jpg,,87349,prediction_trial,16,image-button-response,
1549,3_ramp_blue,,0,,,3,False,No,False,,1,0.0-9.0-0.0,,Yes,2327,,stimuli/lr_hy_r_first.jpg,,99863,prediction_trial,19,image-button-response,
1549,3_ramp_blue,,1,,,3,True,No,False,,0,0.0-10.0-0.0,,No,3041,,stimuli/hb_hy_r_first.jpg,,112659,prediction_trial,22,image-button-response,
1549,3_ramp_blue,,1,,,3,True,Yes,True,,3,0.0-11.0-0.0,,Yes,2434,,stimuli/lr_lb_r_first.jpg,,124747,prediction_trial,25,image-button-response,
1549,3_ramp_blue,,1,,,3,True,No,False,,2,0.0-12.0-0.0,,No,2059,,stimuli/hb_lb_r_first.jpg,,136951,prediction_trial,28,image-button-response,
1549,3_ramp_blue,,1,,,3,True,No,False,,1,0.0-13.0-0.0,,No,2593,,stimuli/lr_hy_r_first.jpg,,149531,prediction_trial,31,image-button-response,
1549,3_ramp_blue,,1,,,3,True,No,False,,0,0.0-14.0-0.0,,No,2796,,stimuli/hb_hy_r_first.jpg,,162115,prediction_trial,34,image-button-response,
1549,3_ramp_blue,,0,,,3,False,Yes,True,,3,0.0-15.0-0.0,,No,2034,,stimuli/lr_lb_r_first.jpg,,175061,prediction_trial,37,image-button-response,
1549,3_ramp_blue,,0,,,3,False,No,False,,2,0.0-16.0-0.0,,Yes,1866,,stimuli/hb_lb_r_first.jpg,,186875,prediction_trial,40,image-button-response,
1549,3_ramp_blue,,0,,,3,False,Yes,True,,3,0.0-17.0-0.0,,No,1977,,stimuli/lr_lb_r_first.jpg,,198849,prediction_trial,43,image-button-response,
1549,3_ramp_blue,,1,,,3,True,No,False,,0,0.0-18.0-0.0,,No,1676,,stimuli/hb_hy_r_first.jpg,,210480,prediction_trial,46,image-button-response,
1549,3_ramp_blue,,0,,,3,False,No,False,,1,0.0-19.0-0.0,,Yes,1245,,stimuli/lr_hy_r_first.jpg,,221263,prediction_trial,49,image-button-response,
1549,3_ramp_blue,,1,,,3,True,No,False,,2,0.0-20.0-0.0,,No,1631,,stimuli/hb_lb_r_first.jpg,,232615,prediction_trial,52,image-button-response,
1549,3_ramp_blue,False,,False,"['<br><img src=stimuli/r_b_0.jpg style=width:75px></img', '<br><img src=stimuli/r_b_1.jpg style=width:75px></img', '<br><img src=stimuli/r_b_2.jpg style=width:75px></img', '<br><img src=stimuli/r_b_3.jpg style=width:75px></img']",3,,,,3,,0.0-22.0,[0],<br><img src=stimuli/r_b_1.jpg style=width:75px></img,5400,1,,lr_lb_r,253126,surprise_quiz,56,survey-multi-choice,
1549,3_ramp_blue,True,,False,"['<br><img src=stimuli/b_b_0.jpg style=width:75px></img', '<br><img src=stimuli/b_b_1.jpg style=width:75px></img', '<br><img src=stimuli/b_b_2.jpg style=width:75px></img', '<br><img src=stimuli/b_b_3.jpg style=width:75px></img']",3,,,,2,,0.0-23.0,[0],<br><img src=stimuli/b_b_2.jpg style=width:75px></img,4617,2,,hb_lb_r,257747,surprise_quiz,57,survey-multi-choice,
1549,3_ramp_blue,True,,True,"['<br><img src=stimuli/r_y_0.jpg style=width:75px></img', '<br><img src=stimuli/r_y_1.jpg style=width:75px></img', '<br><img src=stimuli/r_y_2.jpg style=width:75px></img', '<br><img src=stimuli/r_y_3.jpg style=width:75px></img']",3,,,,1,,0.0-24.0,[0],<br><img src=stimuli/r_y_1.jpg style=width:75px></img,3455,1,,lr_hy_r,261205,surprise_quiz,58,survey-multi-choice,
1549,3_ramp_blue,False,,False,"['<br><img src=stimuli/b_y_0.jpg style=width:75px></img', '<br><img src=stimuli/b_y_1.jpg style=width:75px></img', '<br><img src=stimuli/b_y_2.jpg style=width:75px></img', '<br><img src=stimuli/b_y_3.jpg style=width:75px></img']",3,,,,0,,0.0-25.0,[0],<br><img src=stimuli/b_y_2.jpg style=width:75px></img,2607,2,,hb_hy_r,263816,surprise_quiz,59,survey-multi-choice,
1581,3_ramp_blue,,1,,,3,True,Yes,True,,3,0.0-5.0-0.0,,Yes,4648,,stimuli/lr_lb_r_first.jpg,,59334,prediction_trial,7,image-button-response,
1581,3_ramp_blue,,1,,,3,True,No,False,,0,0.0-6.0-0.0,,No,3284,,stimuli/hb_hy_r_first.jpg,,75460,prediction_trial,10,image-button-response,
1581,3_ramp_blue,,1,,,3,True,No,False,,2,0.0-7.0-0.0,,No,4004,,stimuli/hb_lb_r_first.jpg,,89950,prediction_trial,13,image-button-response,
1581,3_ramp_blue,,1,,,3,True,Yes,True,,3,0.0-8.0-0.0,,Yes,1724,,stimuli/lr_lb_r_first.jpg,,102715,prediction_trial,16,image-button-response,
1581,3_ramp_blue,,0,,,3,False,No,False,,1,0.0-9.0-0.0,,Yes,2729,,stimuli/lr_hy_r_first.jpg,,114641,prediction_trial,19,image-button-response,
1581,3_ramp_blue,,1,,,3,True,No,False,,0,0.0-10.0-0.0,,No,6350,,stimuli/hb_hy_r_first.jpg,,136661,prediction_trial,22,image-button-response,
1581,3_ramp_blue,,1,,,3,True,No,False,,2,0.0-11.0-0.0,,No,5782,,stimuli/hb_lb_r_first.jpg,,153477,prediction_trial,25,image-button-response,
1581,3_ramp_blue,,1,,,3,True,Yes,True,,3,0.0-12.0-0.0,,Yes,1244,,stimuli/lr_lb_r_first.jpg,,164202,prediction_trial,28,image-button-response,
1581,3_ramp_blue,,1,,,3,True,No,False,,0,0.0-13.0-0.0,,No,1882,,stimuli/hb_hy_r_first.jpg,,178521,prediction_trial,31,image-button-response,
1581,3_ramp_blue,,1,,,3,True,No,False,,1,0.0-14.0-0.0,,No,6795,,stimuli/lr_hy_r_first.jpg,,196837,prediction_trial,34,image-button-response,
1581,3_ramp_blue,,1,,,3,True,Yes,True,,3,0.0-15.0-0.0,,Yes,3996,,stimuli/lr_lb_r_first.jpg,,209407,prediction_trial,37,image-button-response,
1581,3_ramp_blue,,1,,,3,True,No,False,,2,0.0-16.0-0.0,,No,1100,,stimuli/hb_lb_r_first.jpg,,219435,prediction_trial,40,image-button-response,
1581,3_ramp_blue,,1,,,3,True,No,False,,1,0.0-17.0-0.0,,No,2751,,stimuli/lr_hy_r_first.jpg,,231233,prediction_trial,43,image-button-response,
1581,3_ramp_blue,,1,,,3,True,No,False,,2,0.0-18.0-0.0,,No,8497,,stimuli/hb_lb_r_first.jpg,,248657,prediction_trial,46,image-button-response,
1581,3_ramp_blue,,1,,,3,True,No,False,,1,0.0-19.0-0.0,,No,6179,,stimuli/lr_hy_r_first.jpg,,265164,prediction_trial,49,image-button-response,
