workerid,proliferate.condition,accuracy,accuracy_bool,accuracy_finish_line,age,bonus,choices,condition,correct,correct_response,crosses,end_posision,end_position,ethnicity,failed_audio,failed_images,failed_video,feedback,gender,internal_node_id,overall_accuracy,question_order,race,response,rt,selected_position,stimulus,success,surprise_setup,time_elapsed,timeout,trial,trial_index,trial_type,view_history,error
1577,3_ramp_blue,,,,,,,3,,,,,,,[],[],[],,,0.0-0.0,,,,,,,,True,,353,False,,0,preload,,
1577,3_ramp_blue,,,,,,,3,,,,,,,,,,,,0.0-1.0,,,,,,,,True,,2659,,,1,fullscreen,,
1577,3_ramp_blue,,,,,,,3,,,,,,,,,,,,0.0-2.0,,,,0,2110,,"<p><b>Consent Form</b></p> <div style=""text-align:left;background-color:lightblue; padding:20px; max-width:900px;""><p><b>Description:</b> Welcome! You are invited to participate in a research study in cognitive psychology. You will be asked to perform various tasks on a computer which may include: looking at images or videos, listening to sounds, reading scenarios, or playing games. You may be asked a number of different questions about making judgments and intepreting people's actions. All information collected will remain confidential. </p> <p> <b>Risks and benefits:</b> Risks involved in this study are the same as those normally associated with using a computer (e.g., mild eye/arm strain). If you have any pre- existing conditions that might make reading and completing a computer-based survey strenuous for you, you should probably elect to not participate in this study. If at any time during the study you feel unable to participate because you are experiencing strain, you may end your participation without penalty. We cannot and do not guarantee or promise that you will receive any benefits from this study. Your decision whether or not to participate in this study will not affect your employment, medical care, and/or grades in school. </p><p><b>Time involvement:</b> Your participation in this experiment will take  5 minutes. </p><p><b> Payment:</b> If recruitment materials indicate payment (e.g., Prolific or other recruitment), you will receive compensation as indicated. </p><p><b>Subject's rights:</b> If you have read this notice and have decided to participate in this project, please understand your participation is voluntary and you have the right to withdraw your consent or discontinue participation at any time without penalty or loss of benefits to which you are otherwise entitled. You have the right to refuse to answer particular questions. Your individual privacy will be maintained in all published and written data resulting from the study. </p><p><b>Contact information:</b> If you have any questions, concerns or complaints about this research study, its procedures, or risks and benefits, you should ask the Protocol Director, (Professor Tobias Gerstenberg, Phone: (650) 725-2431; Email: gerstenberg@stanford.edu). </p><p><b>Independent contact:</b> If you are not satisfied with how this study is being conducted, or if you have any concerns, complaints, or general questions about the research or your rights as a participant, please contact the Stanford Institutional Review Board (IRB) to speak to someone independent of the research team via email at irb2-manager@lists.stanford.edu, or via phone at (650) 723-2480 or toll free at 1-866-680-2906. You can also write to the Stanford IRB, Stanford University, 3000 El Camino Real, Five Palo Alto Square, 4th Floor, Palo Alto, CA 94306. </p><p>You may want to print a copy of this consent form to keep. By clicking the button below, you acknowledge that you have read the above information, that you are 18 years of age, or older and give your consent to participate in our internet-based study and consent for us to analyze the resulting data. </p> </div><p> Do you agree with the terms of the experiment as explained above? </p>",,,4771,,,2,html-button-response,,
1577,3_ramp_blue,,,,,,,3,,,,,,,,,,,,0.0-3.0-0.0,,,,,13820,,,,,18595,,instructions_pt1,3,instructions,"[{'page_index': 0, 'viewing_time': 2251}, {'page_index': 1, 'viewing_time': 2054}, {'page_index': 2, 'viewing_time': 1330}, {'page_index': 3, 'viewing_time': 1371}, {'page_index': 4, 'viewing_time': 2131}, {'page_index': 5, 'viewing_time': 1593}, {'page_index': 6, 'viewing_time': 1736}, {'page_index': 7, 'viewing_time': 1354}]",
1577,3_ramp_blue,True,,,,,,3,,0,,,,,,,,,,0.0-3.0-1.0-0.0,,,,0,3452,,"<p> In this experiment, you will receive a bonus payment proportional to _________.</p>",,,22049,,comprehension_quiz,4,html-button-response,,
1577,3_ramp_blue,True,,,,,,3,,1,,,,,,,,,,0.0-3.0-1.0-1.0,,,,1,1769,,You will be asked to predict whether objects _________.,,,23820,,comprehension_quiz,5,html-button-response,,
1577,3_ramp_blue,,,,,,,3,,,,,,,,,,,,0.0-4.0,,,,0,1001,,The experiment will now begin,,,24824,,,6,html-button-response,,
1577,3_ramp_blue,,0,,,,,3,False,No,False,,0,,,,,,,0.0-5.0-0.0,,,,Yes,2129,,stimuli/hb_hy_r_first.jpg,,,26967,,prediction_trial,7,image-button-response,,
1577,3_ramp_blue,,,,,,,3,False,,,,,,,,,,,0.0-5.0-1.0,,,,,,,['stimuli/hb_hy_r.mp4'],,,34757,,video_trial,8,video-button-response,,
1577,3_ramp_blue,,,,,,,3,,,,,,,,,,,,0.0-5.0-2.0,,,,0,1033,,stimuli/hb_hy_r_last.jpg,,,35800,,feedback_trial,9,image-button-response,,
1577,3_ramp_blue,,1,,,,,3,True,Yes,True,,3,,,,,,,0.0-6.0-0.0,,,,Yes,2128,,stimuli/lr_lb_r_first.jpg,,,37940,,prediction_trial,10,image-button-response,,
1577,3_ramp_blue,,,,,,,3,True,,,,,,,,,,,0.0-6.0-1.0,,,,,,,['stimuli/lr_lb_r.mp4'],,,46216,,video_trial,11,video-button-response,,
1577,3_ramp_blue,,,,,,,3,,,,,,,,,,,,0.0-6.0-2.0,,,,0,960,,stimuli/lr_lb_r_last.jpg,,,47192,,feedback_trial,12,image-button-response,,
1577,3_ramp_blue,,0,,,,,3,False,No,False,,2,,,,,,,0.0-7.0-0.0,,,,Yes,1795,,stimuli/hb_lb_r_first.jpg,,,48999,,prediction_trial,13,image-button-response,,
1577,3_ramp_blue,,,,,,,3,False,,,,,,,,,,,0.0-7.0-1.0,,,,,,,['stimuli/hb_lb_r.mp4'],,,57277,,video_trial,14,video-button-response,,
1577,3_ramp_blue,,,,,,,3,,,,,,,,,,,,0.0-7.0-2.0,,,,0,658,,stimuli/hb_lb_r_last.jpg,,,57945,,feedback_trial,15,image-button-response,,
1577,3_ramp_blue,,0,,,,,3,False,No,False,,0,,,,,,,0.0-8.0-0.0,,,,Yes,1907,,stimuli/hb_hy_r_first.jpg,,,59863,,prediction_trial,16,image-button-response,,
1577,3_ramp_blue,,,,,,,3,False,,,,,,,,,,,0.0-8.0-1.0,,,,,,,['stimuli/hb_hy_r.mp4'],,,67646,,video_trial,17,video-button-response,,
1577,3_ramp_blue,,,,,,,3,,,,,,,,,,,,0.0-8.0-2.0,,,,0,3801,,stimuli/hb_hy_r_last.jpg,,,71452,,feedback_trial,18,image-button-response,,
1577,3_ramp_blue,,1,,,,,3,True,Yes,True,,3,,,,,,,0.0-9.0-0.0,,,,Yes,1009,,stimuli/lr_lb_r_first.jpg,,,72471,,prediction_trial,19,image-button-response,,
1577,3_ramp_blue,,,,,,,3,True,,,,,,,,,,,0.0-9.0-1.0,,,,,,,['stimuli/lr_lb_r.mp4'],,,80747,,video_trial,20,video-button-response,,
1577,3_ramp_blue,,,,,,,3,,,,,,,,,,,,0.0-9.0-2.0,,,,0,953,,stimuli/lr_lb_r_last.jpg,,,81706,,feedback_trial,21,image-button-response,,
1577,3_ramp_blue,,0,,,,,3,False,No,False,,0,,,,,,,0.0-10.0-0.0,,,,Yes,2123,,stimuli/hb_hy_r_first.jpg,,,83840,,prediction_trial,22,image-button-response,,
1577,3_ramp_blue,,,,,,,3,False,,,,,,,,,,,0.0-10.0-1.0,,,,,,,['stimuli/hb_hy_r.mp4'],,,91617,,video_trial,23,video-button-response,,
1577,3_ramp_blue,,,,,,,3,,,,,,,,,,,,0.0-10.0-2.0,,,,0,786,,stimuli/hb_hy_r_last.jpg,,,92409,,feedback_trial,24,image-button-response,,
1577,3_ramp_blue,,0,,,,,3,False,No,False,,1,,,,,,,0.0-11.0-0.0,,,,Yes,1250,,stimuli/lr_hy_r_first.jpg,,,93670,,prediction_trial,25,image-button-response,,
1577,3_ramp_blue,,,,,,,3,False,,,,,,,,,,,0.0-11.0-1.0,,,,,,,['stimuli/lr_hy_r.mp4'],,,101616,,video_trial,26,video-button-response,,
1577,3_ramp_blue,,,,,,,3,,,,,,,,,,,,0.0-11.0-2.0,,,,0,622,,stimuli/lr_hy_r_last.jpg,,,102250,,feedback_trial,27,image-button-response,,
1577,3_ramp_blue,,0,,,,,3,False,No,False,,2,,,,,,,0.0-12.0-0.0,,,,Yes,2634,,stimuli/hb_lb_r_first.jpg,,,104888,,prediction_trial,28,image-button-response,,
1577,3_ramp_blue,,,,,,,3,False,,,,,,,,,,,0.0-12.0-1.0,,,,,,,['stimuli/hb_lb_r.mp4'],,,113167,,video_trial,29,video-button-response,,
1577,3_ramp_blue,,,,,,,3,,,,,,,,,,,,0.0-12.0-2.0,,,,0,587,,stimuli/hb_lb_r_last.jpg,,,113763,,feedback_trial,30,image-button-response,,
1577,3_ramp_blue,,1,,,,,3,True,Yes,True,,3,,,,,,,0.0-13.0-0.0,,,,Yes,1409,,stimuli/lr_lb_r_first.jpg,,,115181,,prediction_trial,31,image-button-response,,
1577,3_ramp_blue,,,,,,,3,True,,,,,,,,,,,0.0-13.0-1.0,,,,,,,['stimuli/lr_lb_r.mp4'],,,123466,,video_trial,32,video-button-response,,
1577,3_ramp_blue,,,,,,,3,,,,,,,,,,,,0.0-13.0-2.0,,,,0,600,,stimuli/lr_lb_r_last.jpg,,,124072,,feedback_trial,33,image-button-response,,
1577,3_ramp_blue,,0,,,,,3,False,No,False,,1,,,,,,,0.0-14.0-0.0,,,,Yes,1414,,stimuli/lr_hy_r_first.jpg,,,125493,,prediction_trial,34,image-button-response,,
1577,3_ramp_blue,,,,,,,3,False,,,,,,,,,,,0.0-14.0-1.0,,,,,,,['stimuli/lr_hy_r.mp4'],,,133447,,video_trial,35,video-button-response,,
1577,3_ramp_blue,,,,,,,3,,,,,,,,,,,,0.0-14.0-2.0,,,,0,455,,stimuli/lr_hy_r_last.jpg,,,133911,,feedback_trial,36,image-button-response,,
1577,3_ramp_blue,,1,,,,,3,True,No,False,,2,,,,,,,0.0-15.0-0.0,,,,No,1068,,stimuli/hb_lb_r_first.jpg,,,134987,,prediction_trial,37,image-button-response,,
1577,3_ramp_blue,,,,,,,3,True,,,,,,,,,,,0.0-15.0-1.0,,,,,,,['stimuli/hb_lb_r.mp4'],,,143277,,video_trial,38,video-button-response,,
1577,3_ramp_blue,,,,,,,3,,,,,,,,,,,,0.0-15.0-2.0,,,,0,561,,stimuli/hb_lb_r_last.jpg,,,143842,,feedback_trial,39,image-button-response,,
1577,3_ramp_blue,,0,,,,,3,False,No,False,,1,,,,,,,0.0-16.0-0.0,,,,Yes,2120,,stimuli/lr_hy_r_first.jpg,,,145971,,prediction_trial,40,image-button-response,,
1577,3_ramp_blue,,,,,,,3,False,,,,,,,,,,,0.0-16.0-1.0,,,,,,,['stimuli/lr_hy_r.mp4'],,,153928,,video_trial,41,video-button-response,,
1577,3_ramp_blue,,,,,,,3,,,,,,,,,,,,0.0-16.0-2.0,,,,0,515,,stimuli/lr_hy_r_last.jpg,,,154449,,feedback_trial,42,image-button-response,,
1577,3_ramp_blue,,0,,,,,3,False,Yes,True,,3,,,,,,,0.0-17.0-0.0,,,,No,856,,stimuli/lr_lb_r_first.jpg,,,155310,,prediction_trial,43,image-button-response,,
1577,3_ramp_blue,,,,,,,3,False,,,,,,,,,,,0.0-17.0-1.0,,,,,,,['stimuli/lr_lb_r.mp4'],,,163597,,video_trial,44,video-button-response,,
1577,3_ramp_blue,,,,,,,3,,,,,,,,,,,,0.0-17.0-2.0,,,,0,397,,stimuli/lr_lb_r_last.jpg,,,164001,,feedback_trial,45,image-button-response,,
1577,3_ramp_blue,,1,,,,,3,True,No,False,,0,,,,,,,0.0-18.0-0.0,,,,No,811,,stimuli/hb_hy_r_first.jpg,,,164820,,prediction_trial,46,image-button-response,,
1577,3_ramp_blue,,,,,,,3,True,,,,,,,,,,,0.0-18.0-1.0,,,,,,,['stimuli/hb_hy_r.mp4'],,,172596,,video_trial,47,video-button-response,,
1577,3_ramp_blue,,,,,,,3,,,,,,,,,,,,0.0-18.0-2.0,,,,0,558,,stimuli/hb_hy_r_last.jpg,,,173161,,feedback_trial,48,image-button-response,,
1577,3_ramp_blue,,1,,,,,3,True,No,False,,2,,,,,,,0.0-19.0-0.0,,,,No,1051,,stimuli/hb_lb_r_first.jpg,,,174219,,prediction_trial,49,image-button-response,,
1577,3_ramp_blue,,,,,,,3,True,,,,,,,,,,,0.0-19.0-1.0,,,,,,,['stimuli/hb_lb_r.mp4'],,,182507,,video_trial,50,video-button-response,,
1577,3_ramp_blue,,,,,,,3,,,,,,,,,,,,0.0-19.0-2.0,,,,0,570,,stimuli/hb_lb_r_last.jpg,,,183087,,feedback_trial,51,image-button-response,,
1577,3_ramp_blue,,1,,,,,3,True,No,False,,1,,,,,,,0.0-20.0-0.0,,,,No,1796,,stimuli/lr_hy_r_first.jpg,,,184890,,prediction_trial,52,image-button-response,,
1577,3_ramp_blue,,,,,,,3,True,,,,,,,,,,,0.0-20.0-1.0,,,,,,,['stimuli/lr_hy_r.mp4'],,,192836,,video_trial,53,video-button-response,,
1577,3_ramp_blue,,,,,,,3,,,,,,,,,,,,0.0-20.0-2.0,,,,0,558,,stimuli/lr_hy_r_last.jpg,,,193401,,feedback_trial,54,image-button-response,,
1577,3_ramp_blue,,,,,,,3,,,,,,,,,,,,0.0-21.0,,,,0,1580,," <p> Now we will ask you to make some different predictions.</p> <p>This time, we'll ask you to select one of four images that correctly shows where the block will end up.</p>",,,194982,,surprise_quiz_instructions,55,html-button-response,,
1577,3_ramp_blue,False,,False,,,"['<br><img src=stimuli/r_y_0.jpg style=width:307.2px></img', '<br><img src=stimuli/r_y_1.jpg style=width:307.2px></img', '<br><img src=stimuli/r_y_2.jpg style=width:307.2px></img', '<br><img src=stimuli/r_y_3.jpg style=width:307.2px></img']",3,,,,1,,,,,,,,0.0-22.0,,[0],,<br><img src=stimuli/r_y_2.jpg style=width:307.2px></img,5436,2,,,lr_hy_r,200421,,surprise_quiz,56,survey-multi-choice,,
1577,3_ramp_blue,False,,False,,,"['<br><img src=stimuli/b_y_0.jpg style=width:307.2px></img', '<br><img src=stimuli/b_y_1.jpg style=width:307.2px></img', '<br><img src=stimuli/b_y_2.jpg style=width:307.2px></img', '<br><img src=stimuli/b_y_3.jpg style=width:307.2px></img']",3,,,,0,,,,,,,,0.0-23.0,,[0],,<br><img src=stimuli/b_y_2.jpg style=width:307.2px></img,2517,2,,,hb_hy_r,202942,,surprise_quiz,57,survey-multi-choice,,
1577,3_ramp_blue,True,,True,,,"['<br><img src=stimuli/r_b_0.jpg style=width:307.2px></img', '<br><img src=stimuli/r_b_1.jpg style=width:307.2px></img', '<br><img src=stimuli/r_b_2.jpg style=width:307.2px></img', '<br><img src=stimuli/r_b_3.jpg style=width:307.2px></img']",3,,,,3,,,,,,,,0.0-24.0,,[0],,<br><img src=stimuli/r_b_3.jpg style=width:307.2px></img,3407,3,,,lr_lb_r,206353,,surprise_quiz,58,survey-multi-choice,,
1577,3_ramp_blue,True,,False,,,"['<br><img src=stimuli/b_b_0.jpg style=width:307.2px></img', '<br><img src=stimuli/b_b_1.jpg style=width:307.2px></img', '<br><img src=stimuli/b_b_2.jpg style=width:307.2px></img', '<br><img src=stimuli/b_b_3.jpg style=width:307.2px></img']",3,,,,2,,,,,,,,0.0-25.0,,[0],,<br><img src=stimuli/b_b_2.jpg style=width:307.2px></img,1585,2,,,hb_lb_r,207942,,surprise_quiz,59,survey-multi-choice,,
1577,3_ramp_blue,,,,,,,3,,,,,,,,,,,,0.0-26.0,,,,0,3129,,"<p>Thank you for participating!</p>You answered 7 out of 16 trials correctly, and will receive a $0.21 bonus.<p>Now you will complete a short survey before finishing the experiment.</p>",,,211073,,,60,html-button-response,,
1577,3_ramp_blue,,,,32,0.21,,3,,,,,,Non-Hispanic,,,,,Male,0.0-27.0,0.4375,,Black/African American,"{'age': '32', 'race': 'Black/African American', 'gender': 'Male', 'feedback': '', 'ethnicity': 'Non-Hispanic', 'other_race': '', 'other_gender': ''}",6435,,,,,217514,,exit_survey,61,survey-html-form,,
1605,3_ramp_blue,,,,,,,3,,,,,,,[],[],[],,,0.0-0.0,,,,,,,,True,,134,False,,0,preload,,
1605,3_ramp_blue,,,,,,,3,,,,,,,,,,,,0.0-1.0,,,,,,,,True,,11878,,,1,fullscreen,,
1605,3_ramp_blue,,,,,,,3,,,,,,,,,,,,0.0-2.0,,,,0,2831,,"<p><b>Consent Form</b></p> <div style=""text-align:left;background-color:lightblue; padding:20px; max-width:900px;""><p><b>Description:</b> Welcome! You are invited to participate in a research study in cognitive psychology. You will be asked to perform various tasks on a computer which may include: looking at images or videos, listening to sounds, reading scenarios, or playing games. You may be asked a number of different questions about making judgments and intepreting people's actions. All information collected will remain confidential. </p> <p> <b>Risks and benefits:</b> Risks involved in this study are the same as those normally associated with using a computer (e.g., mild eye/arm strain). If you have any pre- existing conditions that might make reading and completing a computer-based survey strenuous for you, you should probably elect to not participate in this study. If at any time during the study you feel unable to participate because you are experiencing strain, you may end your participation without penalty. We cannot and do not guarantee or promise that you will receive any benefits from this study. Your decision whether or not to participate in this study will not affect your employment, medical care, and/or grades in school. </p><p><b>Time involvement:</b> Your participation in this experiment will take  5 minutes. </p><p><b> Payment:</b> If recruitment materials indicate payment (e.g., Prolific or other recruitment), you will receive compensation as indicated. </p><p><b>Subject's rights:</b> If you have read this notice and have decided to participate in this project, please understand your participation is voluntary and you have the right to withdraw your consent or discontinue participation at any time without penalty or loss of benefits to which you are otherwise entitled. You have the right to refuse to answer particular questions. Your individual privacy will be maintained in all published and written data resulting from the study. </p><p><b>Contact information:</b> If you have any questions, concerns or complaints about this research study, its procedures, or risks and benefits, you should ask the Protocol Director, (Professor Tobias Gerstenberg, Phone: (650) 725-2431; Email: gerstenberg@stanford.edu). </p><p><b>Independent contact:</b> If you are not satisfied with how this study is being conducted, or if you have any concerns, complaints, or general questions about the research or your rights as a participant, please contact the Stanford Institutional Review Board (IRB) to speak to someone independent of the research team via email at irb2-manager@lists.stanford.edu, or via phone at (650) 723-2480 or toll free at 1-866-680-2906. You can also write to the Stanford IRB, Stanford University, 3000 El Camino Real, Five Palo Alto Square, 4th Floor, Palo Alto, CA 94306. </p><p>You may want to print a copy of this consent form to keep. By clicking the button below, you acknowledge that you have read the above information, that you are 18 years of age, or older and give your consent to participate in our internet-based study and consent for us to analyze the resulting data. </p> </div><p> Do you agree with the terms of the experiment as explained above? </p>",,,14710,,,2,html-button-response,,
1605,3_ramp_blue,,,,,,,3,,,,,,,,,,,,0.0-3.0-0.0,,,,,17014,,,,,31724,,instructions_pt1,3,instructions,"[{'page_index': 0, 'viewing_time': 3630}, {'page_index': 1, 'viewing_time': 2208}, {'page_index': 2, 'viewing_time': 1505}, {'page_index': 3, 'viewing_time': 1451}, {'page_index': 4, 'viewing_time': 2294}, {'page_index': 5, 'viewing_time': 1936}, {'page_index': 6, 'viewing_time': 2838}, {'page_index': 7, 'viewing_time': 1152}]",
1605,3_ramp_blue,True,,,,,,3,,0,,,,,,,,,,0.0-3.0-1.0-0.0,,,,0,3094,,"<p> In this experiment, you will receive a bonus payment proportional to _________.</p>",,,34819,,comprehension_quiz,4,html-button-response,,
1605,3_ramp_blue,True,,,,,,3,,1,,,,,,,,,,0.0-3.0-1.0-1.0,,,,1,1664,,You will be asked to predict whether objects _________.,,,36484,,comprehension_quiz,5,html-button-response,,
1605,3_ramp_blue,,,,,,,3,,,,,,,,,,,,0.0-4.0,,,,0,974,,The experiment will now begin,,,37459,,,6,html-button-response,,
1605,3_ramp_blue,,0,,,,,3,False,No,False,,1,,,,,,,0.0-5.0-0.0,,,,Yes,9981,,stimuli/lr_hy_r_first.jpg,,,47442,,prediction_trial,7,image-button-response,,
1605,3_ramp_blue,,,,,,,3,False,,,,,,,,,,,0.0-5.0-1.0,,,,,,,['stimuli/lr_hy_r.mp4'],,,55346,,video_trial,8,video-button-response,,
1605,3_ramp_blue,,,,,,,3,,,,,,,,,,,,0.0-5.0-2.0,,,,0,1492,,stimuli/lr_hy_r_last.jpg,,,56838,,feedback_trial,9,image-button-response,,
1605,3_ramp_blue,,0,,,,,3,False,Yes,True,,3,,,,,,,0.0-6.0-0.0,,,,No,8339,,stimuli/lr_lb_r_first.jpg,,,65178,,prediction_trial,10,image-button-response,,
1605,3_ramp_blue,,,,,,,3,False,,,,,,,,,,,0.0-6.0-1.0,,,,,,,['stimuli/lr_lb_r.mp4'],,,73396,,video_trial,11,video-button-response,,
1605,3_ramp_blue,,,,,,,3,,,,,,,,,,,,0.0-6.0-2.0,,,,0,762,,stimuli/lr_lb_r_last.jpg,,,74158,,feedback_trial,12,image-button-response,,
1605,3_ramp_blue,,0,,,,,3,False,No,False,,0,,,,,,,0.0-7.0-0.0,,,,Yes,2354,,stimuli/hb_hy_r_first.jpg,,,76513,,prediction_trial,13,image-button-response,,
1605,3_ramp_blue,,,,,,,3,False,,,,,,,,,,,0.0-7.0-1.0,,,,,,,['stimuli/hb_hy_r.mp4'],,,84244,,video_trial,14,video-button-response,,
1605,3_ramp_blue,,,,,,,3,,,,,,,,,,,,0.0-7.0-2.0,,,,0,947,,stimuli/hb_hy_r_last.jpg,,,85191,,feedback_trial,15,image-button-response,,
1605,3_ramp_blue,,0,,,,,3,False,No,False,,2,,,,,,,0.0-8.0-0.0,,,,Yes,1882,,stimuli/hb_lb_r_first.jpg,,,87074,,prediction_trial,16,image-button-response,,
1605,3_ramp_blue,,,,,,,3,False,,,,,,,,,,,0.0-8.0-1.0,,,,,,,['stimuli/hb_lb_r.mp4'],,,95278,,video_trial,17,video-button-response,,
1605,3_ramp_blue,,,,,,,3,,,,,,,,,,,,0.0-8.0-2.0,,,,0,1107,,stimuli/hb_lb_r_last.jpg,,,96386,,feedback_trial,18,image-button-response,,
1605,3_ramp_blue,,1,,,,,3,True,Yes,True,,3,,,,,,,0.0-9.0-0.0,,,,Yes,2287,,stimuli/lr_lb_r_first.jpg,,,98674,,prediction_trial,19,image-button-response,,
1605,3_ramp_blue,,,,,,,3,True,,,,,,,,,,,0.0-9.0-1.0,,,,,,,['stimuli/lr_lb_r.mp4'],,,106877,,video_trial,20,video-button-response,,
1605,3_ramp_blue,,,,,,,3,,,,,,,,,,,,0.0-9.0-2.0,,,,0,582,,stimuli/lr_lb_r_last.jpg,,,107460,,feedback_trial,21,image-button-response,,
1605,3_ramp_blue,,1,,,,,3,True,No,False,,2,,,,,,,0.0-10.0-0.0,,,,No,1631,,stimuli/hb_lb_r_first.jpg,,,109092,,prediction_trial,22,image-button-response,,
1605,3_ramp_blue,,,,,,,3,True,,,,,,,,,,,0.0-10.0-1.0,,,,,,,['stimuli/hb_lb_r.mp4'],,,117295,,video_trial,23,video-button-response,,
1605,3_ramp_blue,,,,,,,3,,,,,,,,,,,,0.0-10.0-2.0,,,,0,531,,stimuli/hb_lb_r_last.jpg,,,117826,,feedback_trial,24,image-button-response,,
1605,3_ramp_blue,,1,,,,,3,True,No,False,,1,,,,,,,0.0-11.0-0.0,,,,No,9065,,stimuli/lr_hy_r_first.jpg,,,126892,,prediction_trial,25,image-button-response,,
1605,3_ramp_blue,,,,,,,3,True,,,,,,,,,,,0.0-11.0-1.0,,,,,,,['stimuli/lr_hy_r.mp4'],,,134779,,video_trial,26,video-button-response,,
1605,3_ramp_blue,,,,,,,3,,,,,,,,,,,,0.0-11.0-2.0,,,,0,791,,stimuli/lr_hy_r_last.jpg,,,135570,,feedback_trial,27,image-button-response,,
1605,3_ramp_blue,,1,,,,,3,True,No,False,,2,,,,,,,0.0-12.0-0.0,,,,No,3273,,stimuli/hb_lb_r_first.jpg,,,138844,,prediction_trial,28,image-button-response,,
1605,3_ramp_blue,,,,,,,3,True,,,,,,,,,,,0.0-12.0-1.0,,,,,,,['stimuli/hb_lb_r.mp4'],,,147076,,video_trial,29,video-button-response,,
1605,3_ramp_blue,,,,,,,3,,,,,,,,,,,,0.0-12.0-2.0,,,,0,552,,stimuli/hb_lb_r_last.jpg,,,147630,,feedback_trial,30,image-button-response,,
1605,3_ramp_blue,,1,,,,,3,True,Yes,True,,3,,,,,,,0.0-13.0-0.0,,,,Yes,2397,,stimuli/lr_lb_r_first.jpg,,,150027,,prediction_trial,31,image-button-response,,
1605,3_ramp_blue,,,,,,,3,True,,,,,,,,,,,0.0-13.0-1.0,,,,,,,['stimuli/lr_lb_r.mp4'],,,158227,,video_trial,32,video-button-response,,
1605,3_ramp_blue,,,,,,,3,,,,,,,,,,,,0.0-13.0-2.0,,,,0,815,,stimuli/lr_lb_r_last.jpg,,,159043,,feedback_trial,33,image-button-response,,
1605,3_ramp_blue,,1,,,,,3,True,No,False,,0,,,,,,,0.0-14.0-0.0,,,,No,1762,,stimuli/hb_hy_r_first.jpg,,,160806,,prediction_trial,34,image-button-response,,
1605,3_ramp_blue,,,,,,,3,True,,,,,,,,,,,0.0-14.0-1.0,,,,,,,['stimuli/hb_hy_r.mp4'],,,168545,,video_trial,35,video-button-response,,
1605,3_ramp_blue,,,,,,,3,,,,,,,,,,,,0.0-14.0-2.0,,,,0,603,,stimuli/hb_hy_r_last.jpg,,,169149,,feedback_trial,36,image-button-response,,
1605,3_ramp_blue,,1,,,,,3,True,Yes,True,,3,,,,,,,0.0-15.0-0.0,,,,Yes,3227,,stimuli/lr_lb_r_first.jpg,,,172377,,prediction_trial,37,image-button-response,,
1605,3_ramp_blue,,,,,,,3,True,,,,,,,,,,,0.0-15.0-1.0,,,,,,,['stimuli/lr_lb_r.mp4'],,,180578,,video_trial,38,video-button-response,,
1605,3_ramp_blue,,,,,,,3,,,,,,,,,,,,0.0-15.0-2.0,,,,0,991,,stimuli/lr_lb_r_last.jpg,,,181570,,feedback_trial,39,image-button-response,,
1605,3_ramp_blue,,1,,,,,3,True,No,False,,0,,,,,,,0.0-16.0-0.0,,,,No,1544,,stimuli/hb_hy_r_first.jpg,,,183115,,prediction_trial,40,image-button-response,,
1605,3_ramp_blue,,,,,,,3,True,,,,,,,,,,,0.0-16.0-1.0,,,,,,,['stimuli/hb_hy_r.mp4'],,,190828,,video_trial,41,video-button-response,,
1605,3_ramp_blue,,,,,,,3,,,,,,,,,,,,0.0-16.0-2.0,,,,0,600,,stimuli/hb_hy_r_last.jpg,,,191428,,feedback_trial,42,image-button-response,,
1605,3_ramp_blue,,1,,,,,3,True,No,False,,2,,,,,,,0.0-17.0-0.0,,,,No,1743,,stimuli/hb_lb_r_first.jpg,,,193172,,prediction_trial,43,image-button-response,,
1605,3_ramp_blue,,,,,,,3,True,,,,,,,,,,,0.0-17.0-1.0,,,,,,,['stimuli/hb_lb_r.mp4'],,,201378,,video_trial,44,video-button-response,,
1605,3_ramp_blue,,,,,,,3,,,,,,,,,,,,0.0-17.0-2.0,,,,0,873,,stimuli/hb_lb_r_last.jpg,,,202252,,feedback_trial,45,image-button-response,,
1605,3_ramp_blue,,0,,,,,3,False,No,False,,1,,,,,,,0.0-18.0-0.0,,,,Yes,2598,,stimuli/lr_hy_r_first.jpg,,,204850,,prediction_trial,46,image-button-response,,
1605,3_ramp_blue,,,,,,,3,False,,,,,,,,,,,0.0-18.0-1.0,,,,,,,['stimuli/lr_hy_r.mp4'],,,212761,,video_trial,47,video-button-response,,
1605,3_ramp_blue,,,,,,,3,,,,,,,,,,,,0.0-18.0-2.0,,,,0,1002,,stimuli/lr_hy_r_last.jpg,,,213764,,feedback_trial,48,image-button-response,,
1605,3_ramp_blue,,1,,,,,3,True,No,False,,0,,,,,,,0.0-19.0-0.0,,,,No,1559,,stimuli/hb_hy_r_first.jpg,,,215324,,prediction_trial,49,image-button-response,,
1605,3_ramp_blue,,,,,,,3,True,,,,,,,,,,,0.0-19.0-1.0,,,,,,,['stimuli/hb_hy_r.mp4'],,,223044,,video_trial,50,video-button-response,,
1605,3_ramp_blue,,,,,,,3,,,,,,,,,,,,0.0-19.0-2.0,,,,0,527,,stimuli/hb_hy_r_last.jpg,,,223572,,feedback_trial,51,image-button-response,,
1605,3_ramp_blue,,0,,,,,3,False,No,False,,1,,,,,,,0.0-20.0-0.0,,,,Yes,1837,,stimuli/lr_hy_r_first.jpg,,,225410,,prediction_trial,52,image-button-response,,
1605,3_ramp_blue,,,,,,,3,False,,,,,,,,,,,0.0-20.0-1.0,,,,,,,['stimuli/lr_hy_r.mp4'],,,233294,,video_trial,53,video-button-response,,
1605,3_ramp_blue,,,,,,,3,,,,,,,,,,,,0.0-20.0-2.0,,,,0,537,,stimuli/lr_hy_r_last.jpg,,,233833,,feedback_trial,54,image-button-response,,
1605,3_ramp_blue,,,,,,,3,,,,,,,,,,,,0.0-21.0,,,,0,1603,," <p> Now we will ask you to make some different predictions.</p> <p>This time, we'll ask you to select one of four images that correctly shows where the block will end up.</p>",,,235437,,surprise_quiz_instructions,55,html-button-response,,
1605,3_ramp_blue,True,,True,,,"['<br><img src=stimuli/r_b_0.jpg style=width:358.4px></img', '<br><img src=stimuli/r_b_1.jpg style=width:358.4px></img', '<br><img src=stimuli/r_b_2.jpg style=width:358.4px></img', '<br><img src=stimuli/r_b_3.jpg style=width:358.4px></img']",3,,,,3,,,,,,,,0.0-22.0,,[0],,<br><img src=stimuli/r_b_3.jpg style=width:358.4px></img,9645,3,,,lr_lb_r,245085,,surprise_quiz,56,survey-multi-choice,,
1605,3_ramp_blue,True,,False,,,"['<br><img src=stimuli/b_b_0.jpg style=width:358.4px></img', '<br><img src=stimuli/b_b_1.jpg style=width:358.4px></img', '<br><img src=stimuli/b_b_2.jpg style=width:358.4px></img', '<br><img src=stimuli/b_b_3.jpg style=width:358.4px></img']",3,,,,2,,,,,,,,0.0-23.0,,[0],,<br><img src=stimuli/b_b_2.jpg style=width:358.4px></img,10189,2,,,hb_lb_r,255276,,surprise_quiz,57,survey-multi-choice,,
1605,3_ramp_blue,False,,False,,,"['<br><img src=stimuli/b_y_0.jpg style=width:358.4px></img', '<br><img src=stimuli/b_y_1.jpg style=width:358.4px></img', '<br><img src=stimuli/b_y_2.jpg style=width:358.4px></img', '<br><img src=stimuli/b_y_3.jpg style=width:358.4px></img']",3,,,,0,,,,,,,,0.0-24.0,,[0],,<br><img src=stimuli/b_y_2.jpg style=width:358.4px></img,5015,2,,,hb_hy_r,260292,,surprise_quiz,58,survey-multi-choice,,
1605,3_ramp_blue,False,,True,,,"['<br><img src=stimuli/r_y_0.jpg style=width:358.4px></img', '<br><img src=stimuli/r_y_1.jpg style=width:358.4px></img', '<br><img src=stimuli/r_y_2.jpg style=width:358.4px></img', '<br><img src=stimuli/r_y_3.jpg style=width:358.4px></img']",3,,,,1,,,,,,,,0.0-25.0,,[0],,<br><img src=stimuli/r_y_0.jpg style=width:358.4px></img,5819,0,,,lr_hy_r,266112,,surprise_quiz,59,survey-multi-choice,,
1605,3_ramp_blue,,,,,,,3,,,,,,,,,,,,0.0-26.0,,,,0,2787,,"<p>Thank you for participating!</p>You answered 10 out of 16 trials correctly, and will receive a $0.30 bonus.<p>Now you will complete a short survey before finishing the experiment.</p>",,,268902,,,60,html-button-response,,
1605,3_ramp_blue,,,,32,0.3,,3,,,,,,Non-Hispanic,,,,The size of the cube and color,Female,0.0-27.0,0.625,,Asian,"{'age': '32', 'race': 'Asian', 'gender': 'Female', 'feedback': 'The size of the cube and color', 'ethnicity': 'Non-Hispanic', 'other_race': '', 'other_gender': ''}",25915,,,,,294818,,exit_survey,61,survey-html-form,,
1521,3_ramp_blue,,,,,,,3,,,,,,,[],[],[],,,0.0-0.0,,,,,,,,True,,259,False,,0,preload,,
1521,3_ramp_blue,,,,,,,3,,,,,,,,,,,,0.0-1.0,,,,,,,,True,,4531,,,1,fullscreen,,
1521,3_ramp_blue,,,,,,,3,,,,,,,,,,,,0.0-2.0,,,,0,26223,,"<p><b>Consent Form</b></p> <div style=""text-align:left;background-color:lightblue; padding:20px; max-width:900px;""><p><b>Description:</b> Welcome! You are invited to participate in a research study in cognitive psychology. You will be asked to perform various tasks on a computer which may include: looking at images or videos, listening to sounds, reading scenarios, or playing games. You may be asked a number of different questions about making judgments and intepreting people's actions. All information collected will remain confidential. </p> <p> <b>Risks and benefits:</b> Risks involved in this study are the same as those normally associated with using a computer (e.g., mild eye/arm strain). If you have any pre- existing conditions that might make reading and completing a computer-based survey strenuous for you, you should probably elect to not participate in this study. If at any time during the study you feel unable to participate because you are experiencing strain, you may end your participation without penalty. We cannot and do not guarantee or promise that you will receive any benefits from this study. Your decision whether or not to participate in this study will not affect your employment, medical care, and/or grades in school. </p><p><b>Time involvement:</b> Your participation in this experiment will take  5 minutes. </p><p><b> Payment:</b> If recruitment materials indicate payment (e.g., Prolific or other recruitment), you will receive compensation as indicated. </p><p><b>Subject's rights:</b> If you have read this notice and have decided to participate in this project, please understand your participation is voluntary and you have the right to withdraw your consent or discontinue participation at any time without penalty or loss of benefits to which you are otherwise entitled. You have the right to refuse to answer particular questions. Your individual privacy will be maintained in all published and written data resulting from the study. </p><p><b>Contact information:</b> If you have any questions, concerns or complaints about this research study, its procedures, or risks and benefits, you should ask the Protocol Director, (Professor Tobias Gerstenberg, Phone: (650) 725-2431; Email: gerstenberg@stanford.edu). </p><p><b>Independent contact:</b> If you are not satisfied with how this study is being conducted, or if you have any concerns, complaints, or general questions about the research or your rights as a participant, please contact the Stanford Institutional Review Board (IRB) to speak to someone independent of the research team via email at irb2-manager@lists.stanford.edu, or via phone at (650) 723-2480 or toll free at 1-866-680-2906. You can also write to the Stanford IRB, Stanford University, 3000 El Camino Real, Five Palo Alto Square, 4th Floor, Palo Alto, CA 94306. </p><p>You may want to print a copy of this consent form to keep. By clicking the button below, you acknowledge that you have read the above information, that you are 18 years of age, or older and give your consent to participate in our internet-based study and consent for us to analyze the resulting data. </p> </div><p> Do you agree with the terms of the experiment as explained above? </p>",,,30757,,,2,html-button-response,,
1521,3_ramp_blue,,,,,,,3,,,,,,,,,,,,0.0-3.0-0.0,,,,,50743,,,,,81502,,instructions_pt1,3,instructions,"[{'page_index': 0, 'viewing_time': 5710}, {'page_index': 1, 'viewing_time': 7856}, {'page_index': 2, 'viewing_time': 4452}, {'page_index': 3, 'viewing_time': 6340}, {'page_index': 4, 'viewing_time': 12896}, {'page_index': 5, 'viewing_time': 5538}, {'page_index': 6, 'viewing_time': 5177}, {'page_index': 7, 'viewing_time': 2774}]",
1521,3_ramp_blue,True,,,,,,3,,0,,,,,,,,,,0.0-3.0-1.0-0.0,,,,0,5630,,"<p> In this experiment, you will receive a bonus payment proportional to _________.</p>",,,87133,,comprehension_quiz,4,html-button-response,,
1521,3_ramp_blue,True,,,,,,3,,1,,,,,,,,,,0.0-3.0-1.0-1.0,,,,1,2994,,You will be asked to predict whether objects _________.,,,90129,,comprehension_quiz,5,html-button-response,,
1521,3_ramp_blue,,,,,,,3,,,,,,,,,,,,0.0-4.0,,,,0,1062,,The experiment will now begin,,,91193,,,6,html-button-response,,
1521,3_ramp_blue,,1,,,,,3,True,No,False,,1,,,,,,,0.0-5.0-0.0,,,,No,14649,,stimuli/lr_hy_r_first.jpg,,,105863,,prediction_trial,7,image-button-response,,
1521,3_ramp_blue,,,,,,,3,True,,,,,,,,,,,0.0-5.0-1.0,,,,,,,['stimuli/lr_hy_r.mp4'],,,113802,,video_trial,8,video-button-response,,
1521,3_ramp_blue,,,,,,,3,,,,,,,,,,,,0.0-5.0-2.0,,,,0,3230,,stimuli/lr_hy_r_last.jpg,,,117035,,feedback_trial,9,image-button-response,,
1521,3_ramp_blue,,1,,,,,3,True,No,False,,2,,,,,,,0.0-6.0-0.0,,,,No,8856,,stimuli/hb_lb_r_first.jpg,,,125895,,prediction_trial,10,image-button-response,,
1521,3_ramp_blue,,,,,,,3,True,,,,,,,,,,,0.0-6.0-1.0,,,,,,,['stimuli/hb_lb_r.mp4'],,,134115,,video_trial,11,video-button-response,,
1521,3_ramp_blue,,,,,,,3,,,,,,,,,,,,0.0-6.0-2.0,,,,0,2450,,stimuli/hb_lb_r_last.jpg,,,136567,,feedback_trial,12,image-button-response,,
1521,3_ramp_blue,,0,,,,,3,False,Yes,True,,3,,,,,,,0.0-7.0-0.0,,,,No,4271,,stimuli/lr_lb_r_first.jpg,,,140841,,prediction_trial,13,image-button-response,,
1521,3_ramp_blue,,,,,,,3,False,,,,,,,,,,,0.0-7.0-1.0,,,,,,,['stimuli/lr_lb_r.mp4'],,,149064,,video_trial,14,video-button-response,,
1521,3_ramp_blue,,,,,,,3,,,,,,,,,,,,0.0-7.0-2.0,,,,0,3123,,stimuli/lr_lb_r_last.jpg,,,152189,,feedback_trial,15,image-button-response,,
1521,3_ramp_blue,,1,,,,,3,True,No,False,,1,,,,,,,0.0-8.0-0.0,,,,No,4268,,stimuli/lr_hy_r_first.jpg,,,156459,,prediction_trial,16,image-button-response,,
1521,3_ramp_blue,,,,,,,3,True,,,,,,,,,,,0.0-8.0-1.0,,,,,,,['stimuli/lr_hy_r.mp4'],,,164362,,video_trial,17,video-button-response,,
1521,3_ramp_blue,,,,,,,3,,,,,,,,,,,,0.0-8.0-2.0,,,,0,2408,,stimuli/lr_hy_r_last.jpg,,,166773,,feedback_trial,18,image-button-response,,
1521,3_ramp_blue,,1,,,,,3,True,Yes,True,,3,,,,,,,0.0-9.0-0.0,,,,Yes,3526,,stimuli/lr_lb_r_first.jpg,,,170301,,prediction_trial,19,image-button-response,,
1521,3_ramp_blue,,,,,,,3,True,,,,,,,,,,,0.0-9.0-1.0,,,,,,,['stimuli/lr_lb_r.mp4'],,,178528,,video_trial,20,video-button-response,,
1521,3_ramp_blue,,,,,,,3,,,,,,,,,,,,0.0-9.0-2.0,,,,0,2779,,stimuli/lr_lb_r_last.jpg,,,181309,,feedback_trial,21,image-button-response,,
1521,3_ramp_blue,,1,,,,,3,True,No,False,,2,,,,,,,0.0-10.0-0.0,,,,No,3001,,stimuli/hb_lb_r_first.jpg,,,184312,,prediction_trial,22,image-button-response,,
1521,3_ramp_blue,,,,,,,3,True,,,,,,,,,,,0.0-10.0-1.0,,,,,,,['stimuli/hb_lb_r.mp4'],,,192525,,video_trial,23,video-button-response,,
1521,3_ramp_blue,,,,,,,3,,,,,,,,,,,,0.0-10.0-2.0,,,,0,2266,,stimuli/hb_lb_r_last.jpg,,,194795,,feedback_trial,24,image-button-response,,
1521,3_ramp_blue,,1,,,,,3,True,No,False,,0,,,,,,,0.0-11.0-0.0,,,,No,3544,,stimuli/hb_hy_r_first.jpg,,,198341,,prediction_trial,25,image-button-response,,
1521,3_ramp_blue,,,,,,,3,True,,,,,,,,,,,0.0-11.0-1.0,,,,,,,['stimuli/hb_hy_r.mp4'],,,206074,,video_trial,26,video-button-response,,
1521,3_ramp_blue,,,,,,,3,,,,,,,,,,,,0.0-11.0-2.0,,,,0,1890,,stimuli/hb_hy_r_last.jpg,,,207967,,feedback_trial,27,image-button-response,,
1521,3_ramp_blue,,1,,,,,3,True,Yes,True,,3,,,,,,,0.0-12.0-0.0,,,,Yes,2390,,stimuli/lr_lb_r_first.jpg,,,210359,,prediction_trial,28,image-button-response,,
1521,3_ramp_blue,,,,,,,3,True,,,,,,,,,,,0.0-12.0-1.0,,,,,,,['stimuli/lr_lb_r.mp4'],,,218571,,video_trial,29,video-button-response,,
1521,3_ramp_blue,,,,,,,3,,,,,,,,,,,,0.0-12.0-2.0,,,,0,2488,,stimuli/lr_lb_r_last.jpg,,,221061,,feedback_trial,30,image-button-response,,
1521,3_ramp_blue,,1,,,,,3,True,No,False,,2,,,,,,,0.0-13.0-0.0,,,,No,1977,,stimuli/hb_lb_r_first.jpg,,,223040,,prediction_trial,31,image-button-response,,
1521,3_ramp_blue,,,,,,,3,True,,,,,,,,,,,0.0-13.0-1.0,,,,,,,['stimuli/hb_lb_r.mp4'],,,231268,,video_trial,32,video-button-response,,
1521,3_ramp_blue,,,,,,,3,,,,,,,,,,,,0.0-13.0-2.0,,,,0,2275,,stimuli/hb_lb_r_last.jpg,,,233544,,feedback_trial,33,image-button-response,,
1521,3_ramp_blue,,1,,,,,3,True,No,False,,0,,,,,,,0.0-14.0-0.0,,,,No,2274,,stimuli/hb_hy_r_first.jpg,,,235821,,prediction_trial,34,image-button-response,,
1521,3_ramp_blue,,,,,,,3,True,,,,,,,,,,,0.0-14.0-1.0,,,,,,,['stimuli/hb_hy_r.mp4'],,,243551,,video_trial,35,video-button-response,,
1521,3_ramp_blue,,,,,,,3,,,,,,,,,,,,0.0-14.0-2.0,,,,0,2150,,stimuli/hb_hy_r_last.jpg,,,245703,,feedback_trial,36,image-button-response,,
1521,3_ramp_blue,,1,,,,,3,True,No,False,,1,,,,,,,0.0-15.0-0.0,,,,No,2645,,stimuli/lr_hy_r_first.jpg,,,248350,,prediction_trial,37,image-button-response,,
1521,3_ramp_blue,,,,,,,3,True,,,,,,,,,,,0.0-15.0-1.0,,,,,,,['stimuli/lr_hy_r.mp4'],,,256266,,video_trial,38,video-button-response,,
1521,3_ramp_blue,,,,,,,3,,,,,,,,,,,,0.0-15.0-2.0,,,,0,1732,,stimuli/lr_hy_r_last.jpg,,,258001,,feedback_trial,39,image-button-response,,
1521,3_ramp_blue,,1,,,,,3,True,Yes,True,,3,,,,,,,0.0-16.0-0.0,,,,Yes,2108,,stimuli/lr_lb_r_first.jpg,,,260111,,prediction_trial,40,image-button-response,,
1521,3_ramp_blue,,,,,,,3,True,,,,,,,,,,,0.0-16.0-1.0,,,,,,,['stimuli/lr_lb_r.mp4'],,,268332,,video_trial,41,video-button-response,,
1521,3_ramp_blue,,,,,,,3,,,,,,,,,,,,0.0-16.0-2.0,,,,0,3137,,stimuli/lr_lb_r_last.jpg,,,271470,,feedback_trial,42,image-button-response,,
1521,3_ramp_blue,,1,,,,,3,True,No,False,,0,,,,,,,0.0-17.0-0.0,,,,No,2018,,stimuli/hb_hy_r_first.jpg,,,273490,,prediction_trial,43,image-button-response,,
1521,3_ramp_blue,,,,,,,3,True,,,,,,,,,,,0.0-17.0-1.0,,,,,,,['stimuli/hb_hy_r.mp4'],,,281231,,video_trial,44,video-button-response,,
1521,3_ramp_blue,,,,,,,3,,,,,,,,,,,,0.0-17.0-2.0,,,,0,1768,,stimuli/hb_hy_r_last.jpg,,,283001,,feedback_trial,45,image-button-response,,
1521,3_ramp_blue,,1,,,,,3,True,No,False,,2,,,,,,,0.0-18.0-0.0,,,,No,1880,,stimuli/hb_lb_r_first.jpg,,,284884,,prediction_trial,46,image-button-response,,
1521,3_ramp_blue,,,,,,,3,True,,,,,,,,,,,0.0-18.0-1.0,,,,,,,['stimuli/hb_lb_r.mp4'],,,293095,,video_trial,47,video-button-response,,
1521,3_ramp_blue,,,,,,,3,,,,,,,,,,,,0.0-18.0-2.0,,,,0,1943,,stimuli/hb_lb_r_last.jpg,,,295040,,feedback_trial,48,image-button-response,,
1521,3_ramp_blue,,1,,,,,3,True,No,False,,0,,,,,,,0.0-19.0-0.0,,,,No,1904,,stimuli/hb_hy_r_first.jpg,,,296947,,prediction_trial,49,image-button-response,,
1521,3_ramp_blue,,,,,,,3,True,,,,,,,,,,,0.0-19.0-1.0,,,,,,,['stimuli/hb_hy_r.mp4'],,,304678,,video_trial,50,video-button-response,,
1521,3_ramp_blue,,,,,,,3,,,,,,,,,,,,0.0-19.0-2.0,,,,0,2037,,stimuli/hb_hy_r_last.jpg,,,306717,,feedback_trial,51,image-button-response,,
1521,3_ramp_blue,,1,,,,,3,True,No,False,,1,,,,,,,0.0-20.0-0.0,,,,No,2665,,stimuli/lr_hy_r_first.jpg,,,309384,,prediction_trial,52,image-button-response,,
1521,3_ramp_blue,,,,,,,3,True,,,,,,,,,,,0.0-20.0-1.0,,,,,,,['stimuli/lr_hy_r.mp4'],,,317292,,video_trial,53,video-button-response,,
1521,3_ramp_blue,,,,,,,3,,,,,,,,,,,,0.0-20.0-2.0,,,,0,3259,,stimuli/lr_hy_r_last.jpg,,,320554,,feedback_trial,54,image-button-response,,
1521,3_ramp_blue,,,,,,,3,,,,,,,,,,,,0.0-21.0,,,,0,8897,," <p> Now we will ask you to make some different predictions.</p> <p>This time, we'll ask you to select one of four images that correctly shows where the block will end up.</p>",,,329453,,surprise_quiz_instructions,55,html-button-response,,
1521,3_ramp_blue,False,,False,,,"['<br><img src=stimuli/b_b_0.jpg style=width:295.2px></img', '<br><img src=stimuli/b_b_1.jpg style=width:295.2px></img', '<br><img src=stimuli/b_b_2.jpg style=width:295.2px></img', '<br><img src=stimuli/b_b_3.jpg style=width:295.2px></img']",3,,,,2,,,,,,,,0.0-22.0,,[0],,<br><img src=stimuli/b_b_3.jpg style=width:295.2px></img,21597,3,,,hb_lb_r,351054,,surprise_quiz,56,survey-multi-choice,,
1521,3_ramp_blue,False,,False,,,"['<br><img src=stimuli/r_y_0.jpg style=width:295.2px></img', '<br><img src=stimuli/r_y_1.jpg style=width:295.2px></img', '<br><img src=stimuli/r_y_2.jpg style=width:295.2px></img', '<br><img src=stimuli/r_y_3.jpg style=width:295.2px></img']",3,,,,1,,,,,,,,0.0-23.0,,[0],,<br><img src=stimuli/r_y_3.jpg style=width:295.2px></img,17000,3,,,lr_hy_r,368057,,surprise_quiz,57,survey-multi-choice,,
1521,3_ramp_blue,True,,True,,,"['<br><img src=stimuli/r_b_0.jpg style=width:295.2px></img', '<br><img src=stimuli/r_b_1.jpg style=width:295.2px></img', '<br><img src=stimuli/r_b_2.jpg style=width:295.2px></img', '<br><img src=stimuli/r_b_3.jpg style=width:295.2px></img']",3,,,,3,,,,,,,,0.0-24.0,,[0],,<br><img src=stimuli/r_b_3.jpg style=width:295.2px></img,9715,3,,,lr_lb_r,377775,,surprise_quiz,58,survey-multi-choice,,
1521,3_ramp_blue,True,,True,,,"['<br><img src=stimuli/b_y_0.jpg style=width:295.2px></img', '<br><img src=stimuli/b_y_1.jpg style=width:295.2px></img', '<br><img src=stimuli/b_y_2.jpg style=width:295.2px></img', '<br><img src=stimuli/b_y_3.jpg style=width:295.2px></img']",3,,,,0,,,,,,,,0.0-25.0,,[0],,<br><img src=stimuli/b_y_0.jpg style=width:295.2px></img,6777,0,,,hb_hy_r,384556,,surprise_quiz,59,survey-multi-choice,,
1521,3_ramp_blue,,,,,,,3,,,,,,,,,,,,0.0-26.0,,,,0,4330,,"<p>Thank you for participating!</p>You answered 15 out of 16 trials correctly, and will receive a $0.45 bonus.<p>Now you will complete a short survey before finishing the experiment.</p>",,,388889,,,60,html-button-response,,
1521,3_ramp_blue,,,,56,0.45,,3,,,,,,Non-Hispanic,,,,none,Non-binary,0.0-27.0,0.9375,,White,"{'age': '56', 'race': 'White', 'gender': 'Non-binary', 'feedback': 'none', 'ethnicity': 'Non-Hispanic', 'other_race': '', 'other_gender': ''}",42304,,,,,431198,,exit_survey,61,survey-html-form,,
1561,3_ramp_blue,,,,,,,3,,,,,,,[],[],[],,,0.0-0.0,,,,,,,,True,,428,False,,0,preload,,
1561,3_ramp_blue,,,,,,,3,,,,,,,,,,,,0.0-1.0,,,,,,,,True,,5162,,,1,fullscreen,,
1561,3_ramp_blue,,,,,,,3,,,,,,,,,,,,0.0-2.0,,,,0,3870,,"<p><b>Consent Form</b></p> <div style=""text-align:left;background-color:lightblue; padding:20px; max-width:900px;""><p><b>Description:</b> Welcome! You are invited to participate in a research study in cognitive psychology. You will be asked to perform various tasks on a computer which may include: looking at images or videos, listening to sounds, reading scenarios, or playing games. You may be asked a number of different questions about making judgments and intepreting people's actions. All information collected will remain confidential. </p> <p> <b>Risks and benefits:</b> Risks involved in this study are the same as those normally associated with using a computer (e.g., mild eye/arm strain). If you have any pre- existing conditions that might make reading and completing a computer-based survey strenuous for you, you should probably elect to not participate in this study. If at any time during the study you feel unable to participate because you are experiencing strain, you may end your participation without penalty. We cannot and do not guarantee or promise that you will receive any benefits from this study. Your decision whether or not to participate in this study will not affect your employment, medical care, and/or grades in school. </p><p><b>Time involvement:</b> Your participation in this experiment will take  5 minutes. </p><p><b> Payment:</b> If recruitment materials indicate payment (e.g., Prolific or other recruitment), you will receive compensation as indicated. </p><p><b>Subject's rights:</b> If you have read this notice and have decided to participate in this project, please understand your participation is voluntary and you have the right to withdraw your consent or discontinue participation at any time without penalty or loss of benefits to which you are otherwise entitled. You have the right to refuse to answer particular questions. Your individual privacy will be maintained in all published and written data resulting from the study. </p><p><b>Contact information:</b> If you have any questions, concerns or complaints about this research study, its procedures, or risks and benefits, you should ask the Protocol Director, (Professor Tobias Gerstenberg, Phone: (650) 725-2431; Email: gerstenberg@stanford.edu). </p><p><b>Independent contact:</b> If you are not satisfied with how this study is being conducted, or if you have any concerns, complaints, or general questions about the research or your rights as a participant, please contact the Stanford Institutional Review Board (IRB) to speak to someone independent of the research team via email at irb2-manager@lists.stanford.edu, or via phone at (650) 723-2480 or toll free at 1-866-680-2906. You can also write to the Stanford IRB, Stanford University, 3000 El Camino Real, Five Palo Alto Square, 4th Floor, Palo Alto, CA 94306. </p><p>You may want to print a copy of this consent form to keep. By clicking the button below, you acknowledge that you have read the above information, that you are 18 years of age, or older and give your consent to participate in our internet-based study and consent for us to analyze the resulting data. </p> </div><p> Do you agree with the terms of the experiment as explained above? </p>",,,9034,,,2,html-button-response,,
1561,3_ramp_blue,,,,,,,3,,,,,,,,,,,,0.0-3.0-0.0,,,,,33614,,,,,42652,,instructions_pt1,3,instructions,"[{'page_index': 0, 'viewing_time': 4896}, {'page_index': 1, 'viewing_time': 5332}, {'page_index': 2, 'viewing_time': 2830}, {'page_index': 3, 'viewing_time': 1573}, {'page_index': 4, 'viewing_time': 4550}, {'page_index': 5, 'viewing_time': 6284}, {'page_index': 6, 'viewing_time': 5325}, {'page_index': 7, 'viewing_time': 2822}]",
1561,3_ramp_blue,True,,,,,,3,,0,,,,,,,,,,0.0-3.0-1.0-0.0,,,,0,5810,,"<p> In this experiment, you will receive a bonus payment proportional to _________.</p>",,,48465,,comprehension_quiz,4,html-button-response,,
1561,3_ramp_blue,True,,,,,,3,,1,,,,,,,,,,0.0-3.0-1.0-1.0,,,,1,3561,,You will be asked to predict whether objects _________.,,,52028,,comprehension_quiz,5,html-button-response,,
1561,3_ramp_blue,,,,,,,3,,,,,,,,,,,,0.0-4.0,,,,0,1857,,The experiment will now begin,,,53887,,,6,html-button-response,,
1561,3_ramp_blue,,1,,,,,3,True,No,False,,0,,,,,,,0.0-5.0-0.0,,,,No,4240,,stimuli/hb_hy_r_first.jpg,,,58158,,prediction_trial,7,image-button-response,,
1561,3_ramp_blue,,,,,,,3,True,,,,,,,,,,,0.0-5.0-1.0,,,,,,,['stimuli/hb_hy_r.mp4'],,,66219,,video_trial,8,video-button-response,,
1561,3_ramp_blue,,,,,,,3,,,,,,,,,,,,0.0-5.0-2.0,,,,0,1934,,stimuli/hb_hy_r_last.jpg,,,68170,,feedback_trial,9,image-button-response,,
1561,3_ramp_blue,,1,,,,,3,True,No,False,,1,,,,,,,0.0-6.0-0.0,,,,No,4827,,stimuli/lr_hy_r_first.jpg,,,73015,,prediction_trial,10,image-button-response,,
1561,3_ramp_blue,,,,,,,3,True,,,,,,,,,,,0.0-6.0-1.0,,,,,,,['stimuli/lr_hy_r.mp4'],,,81055,,video_trial,11,video-button-response,,
1561,3_ramp_blue,,,,,,,3,,,,,,,,,,,,0.0-6.0-2.0,,,,0,1141,,stimuli/lr_hy_r_last.jpg,,,82214,,feedback_trial,12,image-button-response,,
1561,3_ramp_blue,,1,,,,,3,True,No,False,,0,,,,,,,0.0-7.0-0.0,,,,No,4760,,stimuli/hb_hy_r_first.jpg,,,86976,,prediction_trial,13,image-button-response,,
1561,3_ramp_blue,,,,,,,3,True,,,,,,,,,,,0.0-7.0-1.0,,,,,,,['stimuli/hb_hy_r.mp4'],,,94843,,video_trial,14,video-button-response,,
1561,3_ramp_blue,,,,,,,3,,,,,,,,,,,,0.0-7.0-2.0,,,,0,1740,,stimuli/hb_hy_r_last.jpg,,,96586,,feedback_trial,15,image-button-response,,
1561,3_ramp_blue,,1,,,,,3,True,No,False,,2,,,,,,,0.0-8.0-0.0,,,,No,2356,,stimuli/hb_lb_r_first.jpg,,,98962,,prediction_trial,16,image-button-response,,
1561,3_ramp_blue,,,,,,,3,True,,,,,,,,,,,0.0-8.0-1.0,,,,,,,['stimuli/hb_lb_r.mp4'],,,107306,,video_trial,17,video-button-response,,
1561,3_ramp_blue,,,,,,,3,,,,,,,,,,,,0.0-8.0-2.0,,,,0,1302,,stimuli/hb_lb_r_last.jpg,,,108623,,feedback_trial,18,image-button-response,,
1561,3_ramp_blue,,0,,,,,3,False,No,False,,0,,,,,,,0.0-9.0-0.0,,,,Yes,3133,,stimuli/hb_hy_r_first.jpg,,,111759,,prediction_trial,19,image-button-response,,
1561,3_ramp_blue,,,,,,,3,False,,,,,,,,,,,0.0-9.0-1.0,,,,,,,['stimuli/hb_hy_r.mp4'],,,119628,,video_trial,20,video-button-response,,
1561,3_ramp_blue,,,,,,,3,,,,,,,,,,,,0.0-9.0-2.0,,,,0,1362,,stimuli/hb_hy_r_last.jpg,,,120993,,feedback_trial,21,image-button-response,,
1561,3_ramp_blue,,1,,,,,3,True,No,False,,1,,,,,,,0.0-10.0-0.0,,,,No,2067,,stimuli/lr_hy_r_first.jpg,,,123063,,prediction_trial,22,image-button-response,,
1561,3_ramp_blue,,,,,,,3,True,,,,,,,,,,,0.0-10.0-1.0,,,,,,,['stimuli/lr_hy_r.mp4'],,,131099,,video_trial,23,video-button-response,,
1561,3_ramp_blue,,,,,,,3,,,,,,,,,,,,0.0-10.0-2.0,,,,0,1185,,stimuli/lr_hy_r_last.jpg,,,132287,,feedback_trial,24,image-button-response,,
1561,3_ramp_blue,,1,,,,,3,True,No,False,,0,,,,,,,0.0-11.0-0.0,,,,No,3465,,stimuli/hb_hy_r_first.jpg,,,135755,,prediction_trial,25,image-button-response,,
1561,3_ramp_blue,,,,,,,3,True,,,,,,,,,,,0.0-11.0-1.0,,,,,,,['stimuli/hb_hy_r.mp4'],,,143624,,video_trial,26,video-button-response,,
1561,3_ramp_blue,,,,,,,3,,,,,,,,,,,,0.0-11.0-2.0,,,,0,1376,,stimuli/hb_hy_r_last.jpg,,,145016,,feedback_trial,27,image-button-response,,
1561,3_ramp_blue,,1,,,,,3,True,Yes,True,,3,,,,,,,0.0-12.0-0.0,,,,Yes,1765,,stimuli/lr_lb_r_first.jpg,,,146802,,prediction_trial,28,image-button-response,,
1561,3_ramp_blue,,,,,,,3,True,,,,,,,,,,,0.0-12.0-1.0,,,,,,,['stimuli/lr_lb_r.mp4'],,,155159,,video_trial,29,video-button-response,,
1561,3_ramp_blue,,,,,,,3,,,,,,,,,,,,0.0-12.0-2.0,,,,0,1753,,stimuli/lr_lb_r_last.jpg,,,156927,,feedback_trial,30,image-button-response,,
1561,3_ramp_blue,,1,,,,,3,True,No,False,,2,,,,,,,0.0-13.0-0.0,,,,No,3412,,stimuli/hb_lb_r_first.jpg,,,160343,,prediction_trial,31,image-button-response,,
1561,3_ramp_blue,,,,,,,3,True,,,,,,,,,,,0.0-13.0-1.0,,,,,,,['stimuli/hb_lb_r.mp4'],,,168732,,video_trial,32,video-button-response,,
1561,3_ramp_blue,,,,,,,3,,,,,,,,,,,,0.0-13.0-2.0,,,,0,1274,,stimuli/hb_lb_r_last.jpg,,,170008,,feedback_trial,33,image-button-response,,
1561,3_ramp_blue,,1,,,,,3,True,Yes,True,,3,,,,,,,0.0-14.0-0.0,,,,Yes,1876,,stimuli/lr_lb_r_first.jpg,,,171888,,prediction_trial,34,image-button-response,,
1561,3_ramp_blue,,,,,,,3,True,,,,,,,,,,,0.0-14.0-1.0,,,,,,,['stimuli/lr_lb_r.mp4'],,,180227,,video_trial,35,video-button-response,,
1561,3_ramp_blue,,,,,,,3,,,,,,,,,,,,0.0-14.0-2.0,,,,0,1254,,stimuli/lr_lb_r_last.jpg,,,181485,,feedback_trial,36,image-button-response,,
1561,3_ramp_blue,,1,,,,,3,True,No,False,,2,,,,,,,0.0-15.0-0.0,,,,No,3032,,stimuli/hb_lb_r_first.jpg,,,184520,,prediction_trial,37,image-button-response,,
1561,3_ramp_blue,,,,,,,3,True,,,,,,,,,,,0.0-15.0-1.0,,,,,,,['stimuli/hb_lb_r.mp4'],,,192866,,video_trial,38,video-button-response,,
1561,3_ramp_blue,,,,,,,3,,,,,,,,,,,,0.0-15.0-2.0,,,,0,1414,,stimuli/hb_lb_r_last.jpg,,,194283,,feedback_trial,39,image-button-response,,
1561,3_ramp_blue,,0,,,,,3,False,No,False,,1,,,,,,,0.0-16.0-0.0,,,,Yes,1738,,stimuli/lr_hy_r_first.jpg,,,196024,,prediction_trial,40,image-button-response,,
1561,3_ramp_blue,,,,,,,3,False,,,,,,,,,,,0.0-16.0-1.0,,,,,,,['stimuli/lr_hy_r.mp4'],,,204110,,video_trial,41,video-button-response,,
1561,3_ramp_blue,,,,,,,3,,,,,,,,,,,,0.0-16.0-2.0,,,,0,1233,,stimuli/lr_hy_r_last.jpg,,,205365,,feedback_trial,42,image-button-response,,
1561,3_ramp_blue,,0,,,,,3,False,Yes,True,,3,,,,,,,0.0-17.0-0.0,,,,No,2693,,stimuli/lr_lb_r_first.jpg,,,208061,,prediction_trial,43,image-button-response,,
1561,3_ramp_blue,,,,,,,3,False,,,,,,,,,,,0.0-17.0-1.0,,,,,,,['stimuli/lr_lb_r.mp4'],,,216412,,video_trial,44,video-button-response,,
1561,3_ramp_blue,,,,,,,3,,,,,,,,,,,,0.0-17.0-2.0,,,,0,2582,,stimuli/lr_lb_r_last.jpg,,,218996,,feedback_trial,45,image-button-response,,
1561,3_ramp_blue,,1,,,,,3,True,No,False,,1,,,,,,,0.0-18.0-0.0,,,,No,2876,,stimuli/lr_hy_r_first.jpg,,,221874,,prediction_trial,46,image-button-response,,
1561,3_ramp_blue,,,,,,,3,True,,,,,,,,,,,0.0-18.0-1.0,,,,,,,['stimuli/lr_hy_r.mp4'],,,229913,,video_trial,47,video-button-response,,
1561,3_ramp_blue,,,,,,,3,,,,,,,,,,,,0.0-18.0-2.0,,,,0,1385,,stimuli/lr_hy_r_last.jpg,,,231300,,feedback_trial,48,image-button-response,,
1561,3_ramp_blue,,0,,,,,3,False,No,False,,2,,,,,,,0.0-19.0-0.0,,,,Yes,1656,,stimuli/hb_lb_r_first.jpg,,,232970,,prediction_trial,49,image-button-response,,
1561,3_ramp_blue,,,,,,,3,False,,,,,,,,,,,0.0-19.0-1.0,,,,,,,['stimuli/hb_lb_r.mp4'],,,241433,,video_trial,50,video-button-response,,
1561,3_ramp_blue,,,,,,,3,,,,,,,,,,,,0.0-19.0-2.0,,,,0,832,,stimuli/hb_lb_r_last.jpg,,,242305,,feedback_trial,51,image-button-response,,
1561,3_ramp_blue,,1,,,,,3,True,Yes,True,,3,,,,,,,0.0-20.0-0.0,,,,Yes,2377,,stimuli/lr_lb_r_first.jpg,,,244701,,prediction_trial,52,image-button-response,,
1561,3_ramp_blue,,,,,,,3,True,,,,,,,,,,,0.0-20.0-1.0,,,,,,,['stimuli/lr_lb_r.mp4'],,,253058,,video_trial,53,video-button-response,,
1561,3_ramp_blue,,,,,,,3,,,,,,,,,,,,0.0-20.0-2.0,,,,0,1802,,stimuli/lr_lb_r_last.jpg,,,254880,,feedback_trial,54,image-button-response,,
1561,3_ramp_blue,,,,,,,3,,,,,,,,,,,,0.0-21.0,,,,0,7738,," <p> Now we will ask you to make some different predictions.</p> <p>This time, we'll ask you to select one of four images that correctly shows where the block will end up.</p>",,,262625,,surprise_quiz_instructions,55,html-button-response,,
1561,3_ramp_blue,True,,True,,,"['<br><img src=stimuli/r_y_0.jpg style=width:82.8px></img', '<br><img src=stimuli/r_y_1.jpg style=width:82.8px></img', '<br><img src=stimuli/r_y_2.jpg style=width:82.8px></img', '<br><img src=stimuli/r_y_3.jpg style=width:82.8px></img']",3,,,,1,,,,,,,,0.0-22.0,,[0],,<br><img src=stimuli/r_y_1.jpg style=width:82.8px></img,7605,1,,,lr_hy_r,270265,,surprise_quiz,56,survey-multi-choice,,
1561,3_ramp_blue,True,,False,,,"['<br><img src=stimuli/b_b_0.jpg style=width:82.8px></img', '<br><img src=stimuli/b_b_1.jpg style=width:82.8px></img', '<br><img src=stimuli/b_b_2.jpg style=width:82.8px></img', '<br><img src=stimuli/b_b_3.jpg style=width:82.8px></img']",3,,,,2,,,,,,,,0.0-23.0,,[0],,<br><img src=stimuli/b_b_2.jpg style=width:82.8px></img,6142,2,,,hb_lb_r,276410,,surprise_quiz,57,survey-multi-choice,,
1561,3_ramp_blue,True,,True,,,"['<br><img src=stimuli/b_y_0.jpg style=width:82.8px></img', '<br><img src=stimuli/b_y_1.jpg style=width:82.8px></img', '<br><img src=stimuli/b_y_2.jpg style=width:82.8px></img', '<br><img src=stimuli/b_y_3.jpg style=width:82.8px></img']",3,,,,0,,,,,,,,0.0-24.0,,[0],,<br><img src=stimuli/b_y_0.jpg style=width:82.8px></img,4460,0,,,hb_hy_r,280875,,surprise_quiz,58,survey-multi-choice,,
1561,3_ramp_blue,True,,True,,,"['<br><img src=stimuli/r_b_0.jpg style=width:82.8px></img', '<br><img src=stimuli/r_b_1.jpg style=width:82.8px></img', '<br><img src=stimuli/r_b_2.jpg style=width:82.8px></img', '<br><img src=stimuli/r_b_3.jpg style=width:82.8px></img']",3,,,,3,,,,,,,,0.0-25.0,,[0],,<br><img src=stimuli/r_b_3.jpg style=width:82.8px></img,3969,3,,,lr_lb_r,284846,,surprise_quiz,59,survey-multi-choice,,
1561,3_ramp_blue,,,,,,,3,,,,,,,,,,,,0.0-26.0,,,,0,6115,,"<p>Thank you for participating!</p>You answered 12 out of 16 trials correctly, and will receive a $0.36 bonus.<p>Now you will complete a short survey before finishing the experiment.</p>",,,290965,,,60,html-button-response,,
1561,3_ramp_blue,,,,39,0.36,,3,,,,,,Non-Hispanic,,,,The colors played an important part in my decisions. They definitely had different attributes that affected the end result. ,Male,0.0-27.0,0.75,,White,"{'age': '39', 'race': 'White', 'gender': 'Male', 'feedback': 'The colors played an important part in my decisions. They definitely had different attributes that affected the end result. ', 'ethnicity': 'Non-Hispanic', 'other_race': '', 'other_gender': ''}",51057,,,,,342031,,exit_survey,61,survey-html-form,,
1597,3_ramp_blue,,,,,,,3,,,,,,,[],[],[],,,0.0-0.0,,,,,,,,True,,986,False,,0,preload,,
1597,3_ramp_blue,,,,,,,3,,,,,,,,,,,,0.0-1.0,,,,,,,,True,,29473,,,1,fullscreen,,
1597,3_ramp_blue,,,,,,,3,,,,,,,,,,,,0.0-2.0,,,,0,20323,,"<p><b>Consent Form</b></p> <div style=""text-align:left;background-color:lightblue; padding:20px; max-width:900px;""><p><b>Description:</b> Welcome! You are invited to participate in a research study in cognitive psychology. You will be asked to perform various tasks on a computer which may include: looking at images or videos, listening to sounds, reading scenarios, or playing games. You may be asked a number of different questions about making judgments and intepreting people's actions. All information collected will remain confidential. </p> <p> <b>Risks and benefits:</b> Risks involved in this study are the same as those normally associated with using a computer (e.g., mild eye/arm strain). If you have any pre- existing conditions that might make reading and completing a computer-based survey strenuous for you, you should probably elect to not participate in this study. If at any time during the study you feel unable to participate because you are experiencing strain, you may end your participation without penalty. We cannot and do not guarantee or promise that you will receive any benefits from this study. Your decision whether or not to participate in this study will not affect your employment, medical care, and/or grades in school. </p><p><b>Time involvement:</b> Your participation in this experiment will take  5 minutes. </p><p><b> Payment:</b> If recruitment materials indicate payment (e.g., Prolific or other recruitment), you will receive compensation as indicated. </p><p><b>Subject's rights:</b> If you have read this notice and have decided to participate in this project, please understand your participation is voluntary and you have the right to withdraw your consent or discontinue participation at any time without penalty or loss of benefits to which you are otherwise entitled. You have the right to refuse to answer particular questions. Your individual privacy will be maintained in all published and written data resulting from the study. </p><p><b>Contact information:</b> If you have any questions, concerns or complaints about this research study, its procedures, or risks and benefits, you should ask the Protocol Director, (Professor Tobias Gerstenberg, Phone: (650) 725-2431; Email: gerstenberg@stanford.edu). </p><p><b>Independent contact:</b> If you are not satisfied with how this study is being conducted, or if you have any concerns, complaints, or general questions about the research or your rights as a participant, please contact the Stanford Institutional Review Board (IRB) to speak to someone independent of the research team via email at irb2-manager@lists.stanford.edu, or via phone at (650) 723-2480 or toll free at 1-866-680-2906. You can also write to the Stanford IRB, Stanford University, 3000 El Camino Real, Five Palo Alto Square, 4th Floor, Palo Alto, CA 94306. </p><p>You may want to print a copy of this consent form to keep. By clicking the button below, you acknowledge that you have read the above information, that you are 18 years of age, or older and give your consent to participate in our internet-based study and consent for us to analyze the resulting data. </p> </div><p> Do you agree with the terms of the experiment as explained above? </p>",,,49800,,,2,html-button-response,,
1597,3_ramp_blue,,,,,,,3,,,,,,,,,,,,0.0-3.0-0.0,,,,,65479,,,,,115281,,instructions_pt1,3,instructions,"[{'page_index': 0, 'viewing_time': 5236}, {'page_index': 1, 'viewing_time': 5880}, {'page_index': 2, 'viewing_time': 3558}, {'page_index': 3, 'viewing_time': 15940}, {'page_index': 4, 'viewing_time': 7257}, {'page_index': 5, 'viewing_time': 11052}, {'page_index': 6, 'viewing_time': 6838}, {'page_index': 7, 'viewing_time': 9716}]",
1597,3_ramp_blue,True,,,,,,3,,0,,,,,,,,,,0.0-3.0-1.0-0.0,,,,0,17249,,"<p> In this experiment, you will receive a bonus payment proportional to _________.</p>",,,132532,,comprehension_quiz,4,html-button-response,,
1597,3_ramp_blue,True,,,,,,3,,1,,,,,,,,,,0.0-3.0-1.0-1.0,,,,1,3394,,You will be asked to predict whether objects _________.,,,135931,,comprehension_quiz,5,html-button-response,,
1597,3_ramp_blue,,,,,,,3,,,,,,,,,,,,0.0-4.0,,,,0,7232,,The experiment will now begin,,,143169,,,6,html-button-response,,
1597,3_ramp_blue,,1,,,,,3,True,Yes,True,,3,,,,,,,0.0-5.0-0.0,,,,Yes,6787,,stimuli/lr_lb_r_first.jpg,,,149965,,prediction_trial,7,image-button-response,,
1597,3_ramp_blue,,,,,,,3,True,,,,,,,,,,,0.0-5.0-1.0,,,,,,,['stimuli/lr_lb_r.mp4'],,,158203,,video_trial,8,video-button-response,,
1597,3_ramp_blue,,,,,,,3,,,,,,,,,,,,0.0-5.0-2.0,,,,0,1190,,stimuli/lr_lb_r_last.jpg,,,159401,,feedback_trial,9,image-button-response,,
1597,3_ramp_blue,,1,,,,,3,True,No,False,,2,,,,,,,0.0-6.0-0.0,,,,No,3122,,stimuli/hb_lb_r_first.jpg,,,162528,,prediction_trial,10,image-button-response,,
1597,3_ramp_blue,,,,,,,3,True,,,,,,,,,,,0.0-6.0-1.0,,,,,,,['stimuli/hb_lb_r.mp4'],,,170777,,video_trial,11,video-button-response,,
1597,3_ramp_blue,,,,,,,3,,,,,,,,,,,,0.0-6.0-2.0,,,,0,2373,,stimuli/hb_lb_r_last.jpg,,,173158,,feedback_trial,12,image-button-response,,
1597,3_ramp_blue,,0,,,,,3,False,No,False,,0,,,,,,,0.0-7.0-0.0,,,,Yes,6247,,stimuli/hb_hy_r_first.jpg,,,179411,,prediction_trial,13,image-button-response,,
1597,3_ramp_blue,,,,,,,3,False,,,,,,,,,,,0.0-7.0-1.0,,,,,,,['stimuli/hb_hy_r.mp4'],,,187184,,video_trial,14,video-button-response,,
1597,3_ramp_blue,,,,,,,3,,,,,,,,,,,,0.0-7.0-2.0,,,,0,1024,,stimuli/hb_hy_r_last.jpg,,,188216,,feedback_trial,15,image-button-response,,
1597,3_ramp_blue,,1,,,,,3,True,Yes,True,,3,,,,,,,0.0-8.0-0.0,,,,Yes,1829,,stimuli/lr_lb_r_first.jpg,,,190052,,prediction_trial,16,image-button-response,,
1597,3_ramp_blue,,,,,,,3,True,,,,,,,,,,,0.0-8.0-1.0,,,,,,,['stimuli/lr_lb_r.mp4'],,,198263,,video_trial,17,video-button-response,,
1597,3_ramp_blue,,,,,,,3,,,,,,,,,,,,0.0-8.0-2.0,,,,0,1145,,stimuli/lr_lb_r_last.jpg,,,199415,,feedback_trial,18,image-button-response,,
1597,3_ramp_blue,,1,,,,,3,True,No,False,,2,,,,,,,0.0-9.0-0.0,,,,No,6971,,stimuli/hb_lb_r_first.jpg,,,206391,,prediction_trial,19,image-button-response,,
1597,3_ramp_blue,,,,,,,3,True,,,,,,,,,,,0.0-9.0-1.0,,,,,,,['stimuli/hb_lb_r.mp4'],,,214590,,video_trial,20,video-button-response,,
1597,3_ramp_blue,,,,,,,3,,,,,,,,,,,,0.0-9.0-2.0,,,,0,1376,,stimuli/hb_lb_r_last.jpg,,,215974,,feedback_trial,21,image-button-response,,
1597,3_ramp_blue,,0,,,,,3,False,No,False,,0,,,,,,,0.0-10.0-0.0,,,,Yes,2816,,stimuli/hb_hy_r_first.jpg,,,218797,,prediction_trial,22,image-button-response,,
1597,3_ramp_blue,,,,,,,3,False,,,,,,,,,,,0.0-10.0-1.0,,,,,,,['stimuli/hb_hy_r.mp4'],,,226591,,video_trial,23,video-button-response,,
1597,3_ramp_blue,,,,,,,3,,,,,,,,,,,,0.0-10.0-2.0,,,,0,1551,,stimuli/hb_hy_r_last.jpg,,,228149,,feedback_trial,24,image-button-response,,
1597,3_ramp_blue,,0,,,,,3,False,No,False,,1,,,,,,,0.0-11.0-0.0,,,,Yes,1756,,stimuli/lr_hy_r_first.jpg,,,229908,,prediction_trial,25,image-button-response,,
1597,3_ramp_blue,,,,,,,3,False,,,,,,,,,,,0.0-11.0-1.0,,,,,,,['stimuli/lr_hy_r.mp4'],,,237813,,video_trial,26,video-button-response,,
1597,3_ramp_blue,,,,,,,3,,,,,,,,,,,,0.0-11.0-2.0,,,,0,981,,stimuli/lr_hy_r_last.jpg,,,238826,,feedback_trial,27,image-button-response,,
1597,3_ramp_blue,,0,,,,,3,False,No,False,,0,,,,,,,0.0-12.0-0.0,,,,Yes,1739,,stimuli/hb_hy_r_first.jpg,,,240572,,prediction_trial,28,image-button-response,,
1597,3_ramp_blue,,,,,,,3,False,,,,,,,,,,,0.0-12.0-1.0,,,,,,,['stimuli/hb_hy_r.mp4'],,,248315,,video_trial,29,video-button-response,,
1597,3_ramp_blue,,,,,,,3,,,,,,,,,,,,0.0-12.0-2.0,,,,0,719,,stimuli/hb_hy_r_last.jpg,,,249040,,feedback_trial,30,image-button-response,,
1597,3_ramp_blue,,1,,,,,3,True,Yes,True,,3,,,,,,,0.0-13.0-0.0,,,,Yes,1676,,stimuli/lr_lb_r_first.jpg,,,250722,,prediction_trial,31,image-button-response,,
1597,3_ramp_blue,,,,,,,3,True,,,,,,,,,,,0.0-13.0-1.0,,,,,,,['stimuli/lr_lb_r.mp4'],,,258943,,video_trial,32,video-button-response,,
1597,3_ramp_blue,,,,,,,3,,,,,,,,,,,,0.0-13.0-2.0,,,,0,776,,stimuli/lr_lb_r_last.jpg,,,259726,,feedback_trial,33,image-button-response,,
1597,3_ramp_blue,,1,,,,,3,True,No,False,,1,,,,,,,0.0-14.0-0.0,,,,No,1588,,stimuli/lr_hy_r_first.jpg,,,261320,,prediction_trial,34,image-button-response,,
1597,3_ramp_blue,,,,,,,3,True,,,,,,,,,,,0.0-14.0-1.0,,,,,,,['stimuli/lr_hy_r.mp4'],,,269244,,video_trial,35,video-button-response,,
1597,3_ramp_blue,,,,,,,3,,,,,,,,,,,,0.0-14.0-2.0,,,,0,696,,stimuli/lr_hy_r_last.jpg,,,269948,,feedback_trial,36,image-button-response,,
1597,3_ramp_blue,,1,,,,,3,True,Yes,True,,3,,,,,,,0.0-15.0-0.0,,,,Yes,2120,,stimuli/lr_lb_r_first.jpg,,,272075,,prediction_trial,37,image-button-response,,
1597,3_ramp_blue,,,,,,,3,True,,,,,,,,,,,0.0-15.0-1.0,,,,,,,['stimuli/lr_lb_r.mp4'],,,280270,,video_trial,38,video-button-response,,
1597,3_ramp_blue,,,,,,,3,,,,,,,,,,,,0.0-15.0-2.0,,,,0,607,,stimuli/lr_lb_r_last.jpg,,,280884,,feedback_trial,39,image-button-response,,
1597,3_ramp_blue,,1,,,,,3,True,No,False,,0,,,,,,,0.0-16.0-0.0,,,,No,1470,,stimuli/hb_hy_r_first.jpg,,,282360,,prediction_trial,40,image-button-response,,
1597,3_ramp_blue,,,,,,,3,True,,,,,,,,,,,0.0-16.0-1.0,,,,,,,['stimuli/hb_hy_r.mp4'],,,290098,,video_trial,41,video-button-response,,
1597,3_ramp_blue,,,,,,,3,,,,,,,,,,,,0.0-16.0-2.0,,,,0,664,,stimuli/hb_hy_r_last.jpg,,,290770,,feedback_trial,42,image-button-response,,
1597,3_ramp_blue,,0,,,,,3,False,No,False,,2,,,,,,,0.0-17.0-0.0,,,,Yes,1829,,stimuli/hb_lb_r_first.jpg,,,292604,,prediction_trial,43,image-button-response,,
1597,3_ramp_blue,,,,,,,3,False,,,,,,,,,,,0.0-17.0-1.0,,,,,,,['stimuli/hb_lb_r.mp4'],,,300822,,video_trial,44,video-button-response,,
1597,3_ramp_blue,,,,,,,3,,,,,,,,,,,,0.0-17.0-2.0,,,,0,1639,,stimuli/hb_lb_r_last.jpg,,,302468,,feedback_trial,45,image-button-response,,
1597,3_ramp_blue,,0,,,,,3,False,No,False,,1,,,,,,,0.0-18.0-0.0,,,,Yes,7011,,stimuli/lr_hy_r_first.jpg,,,309484,,prediction_trial,46,image-button-response,,
1597,3_ramp_blue,,,,,,,3,False,,,,,,,,,,,0.0-18.0-1.0,,,,,,,['stimuli/lr_hy_r.mp4'],,,317399,,video_trial,47,video-button-response,,
1597,3_ramp_blue,,,,,,,3,,,,,,,,,,,,0.0-18.0-2.0,,,,0,888,,stimuli/lr_hy_r_last.jpg,,,318296,,feedback_trial,48,image-button-response,,
1597,3_ramp_blue,,1,,,,,3,True,No,False,,2,,,,,,,0.0-19.0-0.0,,,,No,3337,,stimuli/hb_lb_r_first.jpg,,,321638,,prediction_trial,49,image-button-response,,
1597,3_ramp_blue,,,,,,,3,True,,,,,,,,,,,0.0-19.0-1.0,,,,,,,['stimuli/hb_lb_r.mp4'],,,329872,,video_trial,50,video-button-response,,
1597,3_ramp_blue,,,,,,,3,,,,,,,,,,,,0.0-19.0-2.0,,,,0,1076,,stimuli/hb_lb_r_last.jpg,,,330956,,feedback_trial,51,image-button-response,,
1597,3_ramp_blue,,0,,,,,3,False,No,False,,1,,,,,,,0.0-20.0-0.0,,,,Yes,2183,,stimuli/lr_hy_r_first.jpg,,,333144,,prediction_trial,52,image-button-response,,
1597,3_ramp_blue,,,,,,,3,False,,,,,,,,,,,0.0-20.0-1.0,,,,,,,['stimuli/lr_hy_r.mp4'],,,341068,,video_trial,53,video-button-response,,
1597,3_ramp_blue,,,,,,,3,,,,,,,,,,,,0.0-20.0-2.0,,,,0,1417,,stimuli/lr_hy_r_last.jpg,,,342492,,feedback_trial,54,image-button-response,,
1597,3_ramp_blue,,,,,,,3,,,,,,,,,,,,0.0-21.0,,,,0,7028,," <p> Now we will ask you to make some different predictions.</p> <p>This time, we'll ask you to select one of four images that correctly shows where the block will end up.</p>",,,349522,,surprise_quiz_instructions,55,html-button-response,,
1597,3_ramp_blue,False,,False,,,"['<br><img src=stimuli/r_y_0.jpg style=width:273.2px></img', '<br><img src=stimuli/r_y_1.jpg style=width:273.2px></img', '<br><img src=stimuli/r_y_2.jpg style=width:273.2px></img', '<br><img src=stimuli/r_y_3.jpg style=width:273.2px></img']",3,,,,1,,,,,,,,0.0-22.0,,[0],,<br><img src=stimuli/r_y_2.jpg style=width:273.2px></img,9201,2,,,lr_hy_r,358728,,surprise_quiz,56,survey-multi-choice,,
1597,3_ramp_blue,False,,False,,,"['<br><img src=stimuli/b_y_0.jpg style=width:273.2px></img', '<br><img src=stimuli/b_y_1.jpg style=width:273.2px></img', '<br><img src=stimuli/b_y_2.jpg style=width:273.2px></img', '<br><img src=stimuli/b_y_3.jpg style=width:273.2px></img']",3,,,,0,,,,,,,,0.0-23.0,,[0],,<br><img src=stimuli/b_y_3.jpg style=width:273.2px></img,5527,3,,,hb_hy_r,364259,,surprise_quiz,57,survey-multi-choice,,
1597,3_ramp_blue,True,,True,,,"['<br><img src=stimuli/r_b_0.jpg style=width:273.2px></img', '<br><img src=stimuli/r_b_1.jpg style=width:273.2px></img', '<br><img src=stimuli/r_b_2.jpg style=width:273.2px></img', '<br><img src=stimuli/r_b_3.jpg style=width:273.2px></img']",3,,,,3,,,,,,,,0.0-24.0,,[0],,<br><img src=stimuli/r_b_3.jpg style=width:273.2px></img,7343,3,,,lr_lb_r,371607,,surprise_quiz,58,survey-multi-choice,,
1597,3_ramp_blue,False,,True,,,"['<br><img src=stimuli/b_b_0.jpg style=width:273.2px></img', '<br><img src=stimuli/b_b_1.jpg style=width:273.2px></img', '<br><img src=stimuli/b_b_2.jpg style=width:273.2px></img', '<br><img src=stimuli/b_b_3.jpg style=width:273.2px></img']",3,,,,2,,,,,,,,0.0-25.0,,[0],,<br><img src=stimuli/b_b_1.jpg style=width:273.2px></img,4017,1,,,hb_lb_r,375629,,surprise_quiz,59,survey-multi-choice,,
1597,3_ramp_blue,,,,,,,3,,,,,,,,,,,,0.0-26.0,,,,0,49310,,"<p>Thank you for participating!</p>You answered 9 out of 16 trials correctly, and will receive a $0.27 bonus.<p>Now you will complete a short survey before finishing the experiment.</p>",,,424946,,,60,html-button-response,,
1597,3_ramp_blue,,,,41,0.27,,3,,,,,,Non-Hispanic,,,,"I tried guessing by ramp color, block color but it wasn't consistent so it was basically just my best guess",Female,0.0-27.0,0.5625,,White,"{'age': '41', 'race': 'White', 'gender': 'Female', 'feedback': ""I tried guessing by ramp color, block color but it wasn't consistent so it was basically just my best guess"", 'ethnicity': 'Non-Hispanic', 'other_race': '', 'other_gender': ''}",82358,,,,,507309,,exit_survey,61,survey-html-form,,
1565,3_ramp_blue,,,,,,,3,,,,,,,[],[],[],,,0.0-0.0,,,,,,,,True,,3072,False,,0,preload,,
1565,3_ramp_blue,,,,,,,3,,,,,,,,,,,,0.0-1.0,,,,,,,,True,,6392,,,1,fullscreen,,
1565,3_ramp_blue,,,,,,,3,,,,,,,,,,,,0.0-2.0,,,,0,3036,,"<p><b>Consent Form</b></p> <div style=""text-align:left;background-color:lightblue; padding:20px; max-width:900px;""><p><b>Description:</b> Welcome! You are invited to participate in a research study in cognitive psychology. You will be asked to perform various tasks on a computer which may include: looking at images or videos, listening to sounds, reading scenarios, or playing games. You may be asked a number of different questions about making judgments and intepreting people's actions. All information collected will remain confidential. </p> <p> <b>Risks and benefits:</b> Risks involved in this study are the same as those normally associated with using a computer (e.g., mild eye/arm strain). If you have any pre- existing conditions that might make reading and completing a computer-based survey strenuous for you, you should probably elect to not participate in this study. If at any time during the study you feel unable to participate because you are experiencing strain, you may end your participation without penalty. We cannot and do not guarantee or promise that you will receive any benefits from this study. Your decision whether or not to participate in this study will not affect your employment, medical care, and/or grades in school. </p><p><b>Time involvement:</b> Your participation in this experiment will take  5 minutes. </p><p><b> Payment:</b> If recruitment materials indicate payment (e.g., Prolific or other recruitment), you will receive compensation as indicated. </p><p><b>Subject's rights:</b> If you have read this notice and have decided to participate in this project, please understand your participation is voluntary and you have the right to withdraw your consent or discontinue participation at any time without penalty or loss of benefits to which you are otherwise entitled. You have the right to refuse to answer particular questions. Your individual privacy will be maintained in all published and written data resulting from the study. </p><p><b>Contact information:</b> If you have any questions, concerns or complaints about this research study, its procedures, or risks and benefits, you should ask the Protocol Director, (Professor Tobias Gerstenberg, Phone: (650) 725-2431; Email: gerstenberg@stanford.edu). </p><p><b>Independent contact:</b> If you are not satisfied with how this study is being conducted, or if you have any concerns, complaints, or general questions about the research or your rights as a participant, please contact the Stanford Institutional Review Board (IRB) to speak to someone independent of the research team via email at irb2-manager@lists.stanford.edu, or via phone at (650) 723-2480 or toll free at 1-866-680-2906. You can also write to the Stanford IRB, Stanford University, 3000 El Camino Real, Five Palo Alto Square, 4th Floor, Palo Alto, CA 94306. </p><p>You may want to print a copy of this consent form to keep. By clicking the button below, you acknowledge that you have read the above information, that you are 18 years of age, or older and give your consent to participate in our internet-based study and consent for us to analyze the resulting data. </p> </div><p> Do you agree with the terms of the experiment as explained above? </p>",,,9431,,,2,html-button-response,,
1565,3_ramp_blue,,,,,,,3,,,,,,,,,,,,0.0-3.0-0.0,,,,,45420,,,,,54856,,instructions_pt1,3,instructions,"[{'page_index': 0, 'viewing_time': 5611}, {'page_index': 1, 'viewing_time': 12094}, {'page_index': 2, 'viewing_time': 4710}, {'page_index': 3, 'viewing_time': 2579}, {'page_index': 4, 'viewing_time': 5450}, {'page_index': 5, 'viewing_time': 4583}, {'page_index': 6, 'viewing_time': 6988}, {'page_index': 7, 'viewing_time': 3405}]",
1565,3_ramp_blue,True,,,,,,3,,0,,,,,,,,,,0.0-3.0-1.0-0.0,,,,0,4364,,"<p> In this experiment, you will receive a bonus payment proportional to _________.</p>",,,59224,,comprehension_quiz,4,html-button-response,,
1565,3_ramp_blue,True,,,,,,3,,1,,,,,,,,,,0.0-3.0-1.0-1.0,,,,1,3644,,You will be asked to predict whether objects _________.,,,62873,,comprehension_quiz,5,html-button-response,,
1565,3_ramp_blue,,,,,,,3,,,,,,,,,,,,0.0-4.0,,,,0,1244,,The experiment will now begin,,,64120,,,6,html-button-response,,
1565,3_ramp_blue,,0,,,,,3,False,No,False,,2,,,,,,,0.0-5.0-0.0,,,,Yes,3550,,stimuli/hb_lb_r_first.jpg,,,67690,,prediction_trial,7,image-button-response,,
1565,3_ramp_blue,,,,,,,3,False,,,,,,,,,,,0.0-5.0-1.0,,,,,,,['stimuli/hb_lb_r.mp4'],,,76190,,video_trial,8,video-button-response,,
1565,3_ramp_blue,,,,,,,3,,,,,,,,,,,,0.0-5.0-2.0,,,,0,1718,,stimuli/hb_lb_r_last.jpg,,,77929,,feedback_trial,9,image-button-response,,
1565,3_ramp_blue,,0,,,,,3,False,No,False,,1,,,,,,,0.0-6.0-0.0,,,,Yes,4123,,stimuli/lr_hy_r_first.jpg,,,82073,,prediction_trial,10,image-button-response,,
1565,3_ramp_blue,,,,,,,3,False,,,,,,,,,,,0.0-6.0-1.0,,,,,,,['stimuli/lr_hy_r.mp4'],,,90049,,video_trial,11,video-button-response,,
1565,3_ramp_blue,,,,,,,3,,,,,,,,,,,,0.0-6.0-2.0,,,,0,758,,stimuli/lr_hy_r_last.jpg,,,90828,,feedback_trial,12,image-button-response,,
1565,3_ramp_blue,,1,,,,,3,True,No,False,,2,,,,,,,0.0-7.0-0.0,,,,No,2435,,stimuli/hb_lb_r_first.jpg,,,93272,,prediction_trial,13,image-button-response,,
1565,3_ramp_blue,,,,,,,3,True,,,,,,,,,,,0.0-7.0-1.0,,,,,,,['stimuli/hb_lb_r.mp4'],,,101604,,video_trial,14,video-button-response,,
1565,3_ramp_blue,,,,,,,3,,,,,,,,,,,,0.0-7.0-2.0,,,,0,1320,,stimuli/hb_lb_r_last.jpg,,,102932,,feedback_trial,15,image-button-response,,
1565,3_ramp_blue,,1,,,,,3,True,Yes,True,,3,,,,,,,0.0-8.0-0.0,,,,Yes,5738,,stimuli/lr_lb_r_first.jpg,,,108689,,prediction_trial,16,image-button-response,,
1565,3_ramp_blue,,,,,,,3,True,,,,,,,,,,,0.0-8.0-1.0,,,,,,,['stimuli/lr_lb_r.mp4'],,,117007,,video_trial,17,video-button-response,,
1565,3_ramp_blue,,,,,,,3,,,,,,,,,,,,0.0-8.0-2.0,,,,0,1578,,stimuli/lr_lb_r_last.jpg,,,118606,,feedback_trial,18,image-button-response,,
1565,3_ramp_blue,,1,,,,,3,True,No,False,,2,,,,,,,0.0-9.0-0.0,,,,No,4289,,stimuli/hb_lb_r_first.jpg,,,122903,,prediction_trial,19,image-button-response,,
1565,3_ramp_blue,,,,,,,3,True,,,,,,,,,,,0.0-9.0-1.0,,,,,,,['stimuli/hb_lb_r.mp4'],,,131218,,video_trial,20,video-button-response,,
1565,3_ramp_blue,,,,,,,3,,,,,,,,,,,,0.0-9.0-2.0,,,,0,2346,,stimuli/hb_lb_r_last.jpg,,,133574,,feedback_trial,21,image-button-response,,
1565,3_ramp_blue,,0,,,,,3,False,No,False,,1,,,,,,,0.0-10.0-0.0,,,,Yes,3067,,stimuli/lr_hy_r_first.jpg,,,136651,,prediction_trial,22,image-button-response,,
1565,3_ramp_blue,,,,,,,3,False,,,,,,,,,,,0.0-10.0-1.0,,,,,,,['stimuli/lr_hy_r.mp4'],,,144633,,video_trial,23,video-button-response,,
1565,3_ramp_blue,,,,,,,3,,,,,,,,,,,,0.0-10.0-2.0,,,,0,1838,,stimuli/lr_hy_r_last.jpg,,,146481,,feedback_trial,24,image-button-response,,
1565,3_ramp_blue,,1,,,,,3,True,Yes,True,,3,,,,,,,0.0-11.0-0.0,,,,Yes,3448,,stimuli/lr_lb_r_first.jpg,,,149938,,prediction_trial,25,image-button-response,,
1565,3_ramp_blue,,,,,,,3,True,,,,,,,,,,,0.0-11.0-1.0,,,,,,,['stimuli/lr_lb_r.mp4'],,,158251,,video_trial,26,video-button-response,,
1565,3_ramp_blue,,,,,,,3,,,,,,,,,,,,0.0-11.0-2.0,,,,0,984,,stimuli/lr_lb_r_last.jpg,,,159244,,feedback_trial,27,image-button-response,,
1565,3_ramp_blue,,0,,,,,3,False,No,False,,0,,,,,,,0.0-12.0-0.0,,,,Yes,2067,,stimuli/hb_hy_r_first.jpg,,,161332,,prediction_trial,28,image-button-response,,
1565,3_ramp_blue,,,,,,,3,False,,,,,,,,,,,0.0-12.0-1.0,,,,,,,['stimuli/hb_hy_r.mp4'],,,169158,,video_trial,29,video-button-response,,
1565,3_ramp_blue,,,,,,,3,,,,,,,,,,,,0.0-12.0-2.0,,,,0,1983,,stimuli/hb_hy_r_last.jpg,,,171162,,feedback_trial,30,image-button-response,,
1565,3_ramp_blue,,1,,,,,3,True,No,False,,2,,,,,,,0.0-13.0-0.0,,,,No,2224,,stimuli/hb_lb_r_first.jpg,,,173395,,prediction_trial,31,image-button-response,,
1565,3_ramp_blue,,,,,,,3,True,,,,,,,,,,,0.0-13.0-1.0,,,,,,,['stimuli/hb_lb_r.mp4'],,,181728,,video_trial,32,video-button-response,,
1565,3_ramp_blue,,,,,,,3,,,,,,,,,,,,0.0-13.0-2.0,,,,0,825,,stimuli/hb_lb_r_last.jpg,,,182560,,feedback_trial,33,image-button-response,,
1565,3_ramp_blue,,1,,,,,3,True,No,False,,1,,,,,,,0.0-14.0-0.0,,,,No,1646,,stimuli/lr_hy_r_first.jpg,,,184214,,prediction_trial,34,image-button-response,,
1565,3_ramp_blue,,,,,,,3,True,,,,,,,,,,,0.0-14.0-1.0,,,,,,,['stimuli/lr_hy_r.mp4'],,,192208,,video_trial,35,video-button-response,,
1565,3_ramp_blue,,,,,,,3,,,,,,,,,,,,0.0-14.0-2.0,,,,0,1148,,stimuli/lr_hy_r_last.jpg,,,193366,,feedback_trial,36,image-button-response,,
1565,3_ramp_blue,,1,,,,,3,True,Yes,True,,3,,,,,,,0.0-15.0-0.0,,,,Yes,3361,,stimuli/lr_lb_r_first.jpg,,,196735,,prediction_trial,37,image-button-response,,
1565,3_ramp_blue,,,,,,,3,True,,,,,,,,,,,0.0-15.0-1.0,,,,,,,['stimuli/lr_lb_r.mp4'],,,205049,,video_trial,38,video-button-response,,
1565,3_ramp_blue,,,,,,,3,,,,,,,,,,,,0.0-15.0-2.0,,,,0,1650,,stimuli/lr_lb_r_last.jpg,,,206707,,feedback_trial,39,image-button-response,,
1565,3_ramp_blue,,1,,,,,3,True,No,False,,0,,,,,,,0.0-16.0-0.0,,,,No,1557,,stimuli/hb_hy_r_first.jpg,,,208274,,prediction_trial,40,image-button-response,,
1565,3_ramp_blue,,,,,,,3,True,,,,,,,,,,,0.0-16.0-1.0,,,,,,,['stimuli/hb_hy_r.mp4'],,,216107,,video_trial,41,video-button-response,,
1565,3_ramp_blue,,,,,,,3,,,,,,,,,,,,0.0-16.0-2.0,,,,0,1884,,stimuli/hb_hy_r_last.jpg,,,218000,,feedback_trial,42,image-button-response,,
1565,3_ramp_blue,,1,,,,,3,True,No,False,,1,,,,,,,0.0-17.0-0.0,,,,No,2200,,stimuli/lr_hy_r_first.jpg,,,220209,,prediction_trial,43,image-button-response,,
1565,3_ramp_blue,,,,,,,3,True,,,,,,,,,,,0.0-17.0-1.0,,,,,,,['stimuli/lr_hy_r.mp4'],,,228210,,video_trial,44,video-button-response,,
1565,3_ramp_blue,,,,,,,3,,,,,,,,,,,,0.0-17.0-2.0,,,,0,1507,,stimuli/lr_hy_r_last.jpg,,,229726,,feedback_trial,45,image-button-response,,
1565,3_ramp_blue,,1,,,,,3,True,No,False,,0,,,,,,,0.0-18.0-0.0,,,,No,2359,,stimuli/hb_hy_r_first.jpg,,,232094,,prediction_trial,46,image-button-response,,
1565,3_ramp_blue,,,,,,,3,True,,,,,,,,,,,0.0-18.0-1.0,,,,,,,['stimuli/hb_hy_r.mp4'],,,239919,,video_trial,47,video-button-response,,
1565,3_ramp_blue,,,,,,,3,,,,,,,,,,,,0.0-18.0-2.0,,,,0,1094,,stimuli/hb_hy_r_last.jpg,,,241023,,feedback_trial,48,image-button-response,,
1565,3_ramp_blue,,1,,,,,3,True,Yes,True,,3,,,,,,,0.0-19.0-0.0,,,,Yes,2290,,stimuli/lr_lb_r_first.jpg,,,243320,,prediction_trial,49,image-button-response,,
1565,3_ramp_blue,,,,,,,3,True,,,,,,,,,,,0.0-19.0-1.0,,,,,,,['stimuli/lr_lb_r.mp4'],,,251642,,video_trial,50,video-button-response,,
1565,3_ramp_blue,,,,,,,3,,,,,,,,,,,,0.0-19.0-2.0,,,,0,1314,,stimuli/lr_lb_r_last.jpg,,,252965,,feedback_trial,51,image-button-response,,
1565,3_ramp_blue,,1,,,,,3,True,No,False,,0,,,,,,,0.0-20.0-0.0,,,,No,1917,,stimuli/hb_hy_r_first.jpg,,,254891,,prediction_trial,52,image-button-response,,
1565,3_ramp_blue,,,,,,,3,True,,,,,,,,,,,0.0-20.0-1.0,,,,,,,['stimuli/hb_hy_r.mp4'],,,262723,,video_trial,53,video-button-response,,
1565,3_ramp_blue,,,,,,,3,,,,,,,,,,,,0.0-20.0-2.0,,,,0,1378,,stimuli/hb_hy_r_last.jpg,,,264108,,feedback_trial,54,image-button-response,,
1565,3_ramp_blue,,,,,,,3,,,,,,,,,,,,0.0-21.0,,,,0,7634,," <p> Now we will ask you to make some different predictions.</p> <p>This time, we'll ask you to select one of four images that correctly shows where the block will end up.</p>",,,271744,,surprise_quiz_instructions,55,html-button-response,,
1565,3_ramp_blue,True,,True,,,"['<br><img src=stimuli/r_b_0.jpg style=width:288px></img', '<br><img src=stimuli/r_b_1.jpg style=width:288px></img', '<br><img src=stimuli/r_b_2.jpg style=width:288px></img', '<br><img src=stimuli/r_b_3.jpg style=width:288px></img']",3,,,,3,,,,,,,,0.0-22.0,,[0],,<br><img src=stimuli/r_b_3.jpg style=width:288px></img,7522,3,,,lr_lb_r,279268,,surprise_quiz,56,survey-multi-choice,,
1565,3_ramp_blue,True,,False,,,"['<br><img src=stimuli/b_b_0.jpg style=width:288px></img', '<br><img src=stimuli/b_b_1.jpg style=width:288px></img', '<br><img src=stimuli/b_b_2.jpg style=width:288px></img', '<br><img src=stimuli/b_b_3.jpg style=width:288px></img']",3,,,,2,,,,,,,,0.0-23.0,,[0],,<br><img src=stimuli/b_b_2.jpg style=width:288px></img,6166,2,,,hb_lb_r,285438,,surprise_quiz,57,survey-multi-choice,,
1565,3_ramp_blue,False,,False,,,"['<br><img src=stimuli/r_y_0.jpg style=width:288px></img', '<br><img src=stimuli/r_y_1.jpg style=width:288px></img', '<br><img src=stimuli/r_y_2.jpg style=width:288px></img', '<br><img src=stimuli/r_y_3.jpg style=width:288px></img']",3,,,,1,,,,,,,,0.0-24.0,,[0],,<br><img src=stimuli/r_y_2.jpg style=width:288px></img,7216,2,,,lr_hy_r,292656,,surprise_quiz,58,survey-multi-choice,,
1565,3_ramp_blue,True,,True,,,"['<br><img src=stimuli/b_y_0.jpg style=width:288px></img', '<br><img src=stimuli/b_y_1.jpg style=width:288px></img', '<br><img src=stimuli/b_y_2.jpg style=width:288px></img', '<br><img src=stimuli/b_y_3.jpg style=width:288px></img']",3,,,,0,,,,,,,,0.0-25.0,,[0],,<br><img src=stimuli/b_y_0.jpg style=width:288px></img,2366,0,,,hb_hy_r,295026,,surprise_quiz,59,survey-multi-choice,,
1565,3_ramp_blue,,,,,,,3,,,,,,,,,,,,0.0-26.0,,,,0,4100,,"<p>Thank you for participating!</p>You answered 12 out of 16 trials correctly, and will receive a $0.36 bonus.<p>Now you will complete a short survey before finishing the experiment.</p>",,,299131,,,60,html-button-response,,
1565,3_ramp_blue,,,,34,0.36,,3,,,,,,Non-Hispanic,,,,Based on what the ramp/block color combinations did when I watched the first couple times,Female,0.0-27.0,0.75,,White,"{'age': '34', 'race': 'White', 'gender': 'Female', 'feedback': 'Based on what the ramp/block color combinations did when I watched the first couple times', 'ethnicity': 'Non-Hispanic', 'other_race': '', 'other_gender': ''}",72517,,,,,371658,,exit_survey,61,survey-html-form,,
1513,3_ramp_blue,,,,,,,3,,,,,,,[],[],[],,,0.0-0.0,,,,,,,,True,,501,False,,0,preload,,
1513,3_ramp_blue,,,,,,,3,,,,,,,,,,,,0.0-1.0,,,,,,,,True,,2987,,,1,fullscreen,,
1513,3_ramp_blue,,,,,,,3,,,,,,,,,,,,0.0-2.0,,,,0,2356,,"<p><b>Consent Form</b></p> <div style=""text-align:left;background-color:lightblue; padding:20px; max-width:900px;""><p><b>Description:</b> Welcome! You are invited to participate in a research study in cognitive psychology. You will be asked to perform various tasks on a computer which may include: looking at images or videos, listening to sounds, reading scenarios, or playing games. You may be asked a number of different questions about making judgments and intepreting people's actions. All information collected will remain confidential. </p> <p> <b>Risks and benefits:</b> Risks involved in this study are the same as those normally associated with using a computer (e.g., mild eye/arm strain). If you have any pre- existing conditions that might make reading and completing a computer-based survey strenuous for you, you should probably elect to not participate in this study. If at any time during the study you feel unable to participate because you are experiencing strain, you may end your participation without penalty. We cannot and do not guarantee or promise that you will receive any benefits from this study. Your decision whether or not to participate in this study will not affect your employment, medical care, and/or grades in school. </p><p><b>Time involvement:</b> Your participation in this experiment will take  5 minutes. </p><p><b> Payment:</b> If recruitment materials indicate payment (e.g., Prolific or other recruitment), you will receive compensation as indicated. </p><p><b>Subject's rights:</b> If you have read this notice and have decided to participate in this project, please understand your participation is voluntary and you have the right to withdraw your consent or discontinue participation at any time without penalty or loss of benefits to which you are otherwise entitled. You have the right to refuse to answer particular questions. Your individual privacy will be maintained in all published and written data resulting from the study. </p><p><b>Contact information:</b> If you have any questions, concerns or complaints about this research study, its procedures, or risks and benefits, you should ask the Protocol Director, (Professor Tobias Gerstenberg, Phone: (650) 725-2431; Email: gerstenberg@stanford.edu). </p><p><b>Independent contact:</b> If you are not satisfied with how this study is being conducted, or if you have any concerns, complaints, or general questions about the research or your rights as a participant, please contact the Stanford Institutional Review Board (IRB) to speak to someone independent of the research team via email at irb2-manager@lists.stanford.edu, or via phone at (650) 723-2480 or toll free at 1-866-680-2906. You can also write to the Stanford IRB, Stanford University, 3000 El Camino Real, Five Palo Alto Square, 4th Floor, Palo Alto, CA 94306. </p><p>You may want to print a copy of this consent form to keep. By clicking the button below, you acknowledge that you have read the above information, that you are 18 years of age, or older and give your consent to participate in our internet-based study and consent for us to analyze the resulting data. </p> </div><p> Do you agree with the terms of the experiment as explained above? </p>",,,5346,,,2,html-button-response,,
1513,3_ramp_blue,,,,,,,3,,,,,,,,,,,,0.0-3.0-0.0,,,,,17830,,,,,23177,,instructions_pt1,3,instructions,"[{'page_index': 0, 'viewing_time': 1936}, {'page_index': 1, 'viewing_time': 3049}, {'page_index': 2, 'viewing_time': 1354}, {'page_index': 3, 'viewing_time': 1332}, {'page_index': 4, 'viewing_time': 2743}, {'page_index': 5, 'viewing_time': 2927}, {'page_index': 6, 'viewing_time': 2764}, {'page_index': 7, 'viewing_time': 1723}]",
1513,3_ramp_blue,True,,,,,,3,,0,,,,,,,,,,0.0-3.0-1.0-0.0,,,,0,2917,,"<p> In this experiment, you will receive a bonus payment proportional to _________.</p>",,,26096,,comprehension_quiz,4,html-button-response,,
1513,3_ramp_blue,True,,,,,,3,,1,,,,,,,,,,0.0-3.0-1.0-1.0,,,,1,1529,,You will be asked to predict whether objects _________.,,,27627,,comprehension_quiz,5,html-button-response,,
1513,3_ramp_blue,,,,,,,3,,,,,,,,,,,,0.0-4.0,,,,0,1145,,The experiment will now begin,,,28774,,,6,html-button-response,,
1513,3_ramp_blue,,1,,,,,3,True,No,False,,0,,,,,,,0.0-5.0-0.0,,,,No,2808,,stimuli/hb_hy_r_first.jpg,,,31602,,prediction_trial,7,image-button-response,,
1513,3_ramp_blue,,,,,,,3,True,,,,,,,,,,,0.0-5.0-1.0,,,,,,,['stimuli/hb_hy_r.mp4'],,,39349,,video_trial,8,video-button-response,,
1513,3_ramp_blue,,,,,,,3,,,,,,,,,,,,0.0-5.0-2.0,,,,0,1554,,stimuli/hb_hy_r_last.jpg,,,40906,,feedback_trial,9,image-button-response,,
1513,3_ramp_blue,,1,,,,,3,True,No,False,,2,,,,,,,0.0-6.0-0.0,,,,No,2776,,stimuli/hb_lb_r_first.jpg,,,43684,,prediction_trial,10,image-button-response,,
1513,3_ramp_blue,,,,,,,3,True,,,,,,,,,,,0.0-6.0-1.0,,,,,,,['stimuli/hb_lb_r.mp4'],,,51904,,video_trial,11,video-button-response,,
1513,3_ramp_blue,,,,,,,3,,,,,,,,,,,,0.0-6.0-2.0,,,,0,1279,,stimuli/hb_lb_r_last.jpg,,,53201,,feedback_trial,12,image-button-response,,
1513,3_ramp_blue,,1,,,,,3,True,No,False,,1,,,,,,,0.0-7.0-0.0,,,,No,2263,,stimuli/lr_hy_r_first.jpg,,,55466,,prediction_trial,13,image-button-response,,
1513,3_ramp_blue,,,,,,,3,True,,,,,,,,,,,0.0-7.0-1.0,,,,,,,['stimuli/lr_hy_r.mp4'],,,63377,,video_trial,14,video-button-response,,
1513,3_ramp_blue,,,,,,,3,,,,,,,,,,,,0.0-7.0-2.0,,,,0,929,,stimuli/lr_hy_r_last.jpg,,,64307,,feedback_trial,15,image-button-response,,
1513,3_ramp_blue,,1,,,,,3,True,No,False,,2,,,,,,,0.0-8.0-0.0,,,,No,2760,,stimuli/hb_lb_r_first.jpg,,,67070,,prediction_trial,16,image-button-response,,
1513,3_ramp_blue,,,,,,,3,True,,,,,,,,,,,0.0-8.0-1.0,,,,,,,['stimuli/hb_lb_r.mp4'],,,75282,,video_trial,17,video-button-response,,
1513,3_ramp_blue,,,,,,,3,,,,,,,,,,,,0.0-8.0-2.0,,,,0,1119,,stimuli/hb_lb_r_last.jpg,,,76402,,feedback_trial,18,image-button-response,,
1513,3_ramp_blue,,1,,,,,3,True,No,False,,1,,,,,,,0.0-9.0-0.0,,,,No,2805,,stimuli/lr_hy_r_first.jpg,,,79209,,prediction_trial,19,image-button-response,,
1513,3_ramp_blue,,,,,,,3,True,,,,,,,,,,,0.0-9.0-1.0,,,,,,,['stimuli/lr_hy_r.mp4'],,,87103,,video_trial,20,video-button-response,,
1513,3_ramp_blue,,,,,,,3,,,,,,,,,,,,0.0-9.0-2.0,,,,0,690,,stimuli/lr_hy_r_last.jpg,,,87794,,feedback_trial,21,image-button-response,,
1513,3_ramp_blue,,1,,,,,3,True,No,False,,2,,,,,,,0.0-10.0-0.0,,,,No,1757,,stimuli/hb_lb_r_first.jpg,,,89553,,prediction_trial,22,image-button-response,,
1513,3_ramp_blue,,,,,,,3,True,,,,,,,,,,,0.0-10.0-1.0,,,,,,,['stimuli/hb_lb_r.mp4'],,,97797,,video_trial,23,video-button-response,,
1513,3_ramp_blue,,,,,,,3,,,,,,,,,,,,0.0-10.0-2.0,,,,0,936,,stimuli/hb_lb_r_last.jpg,,,98735,,feedback_trial,24,image-button-response,,
1513,3_ramp_blue,,0,,,,,3,False,Yes,True,,3,,,,,,,0.0-11.0-0.0,,,,No,1636,,stimuli/lr_lb_r_first.jpg,,,100373,,prediction_trial,25,image-button-response,,
1513,3_ramp_blue,,,,,,,3,False,,,,,,,,,,,0.0-11.0-1.0,,,,,,,['stimuli/lr_lb_r.mp4'],,,108600,,video_trial,26,video-button-response,,
1513,3_ramp_blue,,,,,,,3,,,,,,,,,,,,0.0-11.0-2.0,,,,0,889,,stimuli/lr_lb_r_last.jpg,,,109491,,feedback_trial,27,image-button-response,,
1513,3_ramp_blue,,1,,,,,3,True,No,False,,0,,,,,,,0.0-12.0-0.0,,,,No,1402,,stimuli/hb_hy_r_first.jpg,,,110895,,prediction_trial,28,image-button-response,,
1513,3_ramp_blue,,,,,,,3,True,,,,,,,,,,,0.0-12.0-1.0,,,,,,,['stimuli/hb_hy_r.mp4'],,,118626,,video_trial,29,video-button-response,,
1513,3_ramp_blue,,,,,,,3,,,,,,,,,,,,0.0-12.0-2.0,,,,0,793,,stimuli/hb_hy_r_last.jpg,,,119420,,feedback_trial,30,image-button-response,,
1513,3_ramp_blue,,1,,,,,3,True,No,False,,2,,,,,,,0.0-13.0-0.0,,,,No,1525,,stimuli/hb_lb_r_first.jpg,,,120947,,prediction_trial,31,image-button-response,,
1513,3_ramp_blue,,,,,,,3,True,,,,,,,,,,,0.0-13.0-1.0,,,,,,,['stimuli/hb_lb_r.mp4'],,,129183,,video_trial,32,video-button-response,,
1513,3_ramp_blue,,,,,,,3,,,,,,,,,,,,0.0-13.0-2.0,,,,0,965,,stimuli/hb_lb_r_last.jpg,,,130149,,feedback_trial,33,image-button-response,,
1513,3_ramp_blue,,1,,,,,3,True,No,False,,1,,,,,,,0.0-14.0-0.0,,,,No,1488,,stimuli/lr_hy_r_first.jpg,,,131639,,prediction_trial,34,image-button-response,,
1513,3_ramp_blue,,,,,,,3,True,,,,,,,,,,,0.0-14.0-1.0,,,,,,,['stimuli/lr_hy_r.mp4'],,,139555,,video_trial,35,video-button-response,,
1513,3_ramp_blue,,,,,,,3,,,,,,,,,,,,0.0-14.0-2.0,,,,0,708,,stimuli/lr_hy_r_last.jpg,,,140264,,feedback_trial,36,image-button-response,,
1513,3_ramp_blue,,1,,,,,3,True,Yes,True,,3,,,,,,,0.0-15.0-0.0,,,,Yes,1747,,stimuli/lr_lb_r_first.jpg,,,142013,,prediction_trial,37,image-button-response,,
1513,3_ramp_blue,,,,,,,3,True,,,,,,,,,,,0.0-15.0-1.0,,,,,,,['stimuli/lr_lb_r.mp4'],,,150228,,video_trial,38,video-button-response,,
1513,3_ramp_blue,,,,,,,3,,,,,,,,,,,,0.0-15.0-2.0,,,,0,876,,stimuli/lr_lb_r_last.jpg,,,151106,,feedback_trial,39,image-button-response,,
1513,3_ramp_blue,,1,,,,,3,True,No,False,,0,,,,,,,0.0-16.0-0.0,,,,No,1104,,stimuli/hb_hy_r_first.jpg,,,152211,,prediction_trial,40,image-button-response,,
1513,3_ramp_blue,,,,,,,3,True,,,,,,,,,,,0.0-16.0-1.0,,,,,,,['stimuli/hb_hy_r.mp4'],,,159940,,video_trial,41,video-button-response,,
1513,3_ramp_blue,,,,,,,3,,,,,,,,,,,,0.0-16.0-2.0,,,,0,789,,stimuli/hb_hy_r_last.jpg,,,160730,,feedback_trial,42,image-button-response,,
1513,3_ramp_blue,,1,,,,,3,True,Yes,True,,3,,,,,,,0.0-17.0-0.0,,,,Yes,2976,,stimuli/lr_lb_r_first.jpg,,,163709,,prediction_trial,43,image-button-response,,
1513,3_ramp_blue,,,,,,,3,True,,,,,,,,,,,0.0-17.0-1.0,,,,,,,['stimuli/lr_lb_r.mp4'],,,171925,,video_trial,44,video-button-response,,
1513,3_ramp_blue,,,,,,,3,,,,,,,,,,,,0.0-17.0-2.0,,,,0,756,,stimuli/lr_lb_r_last.jpg,,,172684,,feedback_trial,45,image-button-response,,
1513,3_ramp_blue,,1,,,,,3,True,No,False,,1,,,,,,,0.0-18.0-0.0,,,,No,1083,,stimuli/lr_hy_r_first.jpg,,,173768,,prediction_trial,46,image-button-response,,
1513,3_ramp_blue,,,,,,,3,True,,,,,,,,,,,0.0-18.0-1.0,,,,,,,['stimuli/lr_hy_r.mp4'],,,181666,,video_trial,47,video-button-response,,
1513,3_ramp_blue,,,,,,,3,,,,,,,,,,,,0.0-18.0-2.0,,,,0,582,,stimuli/lr_hy_r_last.jpg,,,182249,,feedback_trial,48,image-button-response,,
1513,3_ramp_blue,,1,,,,,3,True,Yes,True,,3,,,,,,,0.0-19.0-0.0,,,,Yes,1296,,stimuli/lr_lb_r_first.jpg,,,183546,,prediction_trial,49,image-button-response,,
1513,3_ramp_blue,,,,,,,3,True,,,,,,,,,,,0.0-19.0-1.0,,,,,,,['stimuli/lr_lb_r.mp4'],,,191774,,video_trial,50,video-button-response,,
1513,3_ramp_blue,,,,,,,3,,,,,,,,,,,,0.0-19.0-2.0,,,,0,723,,stimuli/lr_lb_r_last.jpg,,,192499,,feedback_trial,51,image-button-response,,
1513,3_ramp_blue,,1,,,,,3,True,No,False,,0,,,,,,,0.0-20.0-0.0,,,,No,997,,stimuli/hb_hy_r_first.jpg,,,193497,,prediction_trial,52,image-button-response,,
1513,3_ramp_blue,,,,,,,3,True,,,,,,,,,,,0.0-20.0-1.0,,,,,,,['stimuli/hb_hy_r.mp4'],,,201213,,video_trial,53,video-button-response,,
1513,3_ramp_blue,,,,,,,3,,,,,,,,,,,,0.0-20.0-2.0,,,,0,602,,stimuli/hb_hy_r_last.jpg,,,201816,,feedback_trial,54,image-button-response,,
1513,3_ramp_blue,,,,,,,3,,,,,,,,,,,,0.0-21.0,,,,0,3804,," <p> Now we will ask you to make some different predictions.</p> <p>This time, we'll ask you to select one of four images that correctly shows where the block will end up.</p>",,,205621,,surprise_quiz_instructions,55,html-button-response,,
1513,3_ramp_blue,False,,True,,,"['<br><img src=stimuli/b_b_0.jpg style=width:307.2px></img', '<br><img src=stimuli/b_b_1.jpg style=width:307.2px></img', '<br><img src=stimuli/b_b_2.jpg style=width:307.2px></img', '<br><img src=stimuli/b_b_3.jpg style=width:307.2px></img']",3,,,,2,,,,,,,,0.0-22.0,,[0],,<br><img src=stimuli/b_b_1.jpg style=width:307.2px></img,8224,1,,,hb_lb_r,213851,,surprise_quiz,56,survey-multi-choice,,
1513,3_ramp_blue,True,,True,,,"['<br><img src=stimuli/r_b_0.jpg style=width:307.2px></img', '<br><img src=stimuli/r_b_1.jpg style=width:307.2px></img', '<br><img src=stimuli/r_b_2.jpg style=width:307.2px></img', '<br><img src=stimuli/r_b_3.jpg style=width:307.2px></img']",3,,,,3,,,,,,,,0.0-23.0,,[0],,<br><img src=stimuli/r_b_3.jpg style=width:307.2px></img,3948,3,,,lr_lb_r,217803,,surprise_quiz,57,survey-multi-choice,,
1513,3_ramp_blue,False,,False,,,"['<br><img src=stimuli/r_y_0.jpg style=width:307.2px></img', '<br><img src=stimuli/r_y_1.jpg style=width:307.2px></img', '<br><img src=stimuli/r_y_2.jpg style=width:307.2px></img', '<br><img src=stimuli/r_y_3.jpg style=width:307.2px></img']",3,,,,1,,,,,,,,0.0-24.0,,[0],,<br><img src=stimuli/r_y_2.jpg style=width:307.2px></img,3600,2,,,lr_hy_r,221406,,surprise_quiz,58,survey-multi-choice,,
1513,3_ramp_blue,True,,True,,,"['<br><img src=stimuli/b_y_0.jpg style=width:307.2px></img', '<br><img src=stimuli/b_y_1.jpg style=width:307.2px></img', '<br><img src=stimuli/b_y_2.jpg style=width:307.2px></img', '<br><img src=stimuli/b_y_3.jpg style=width:307.2px></img']",3,,,,0,,,,,,,,0.0-25.0,,[0],,<br><img src=stimuli/b_y_0.jpg style=width:307.2px></img,2990,0,,,hb_hy_r,224399,,surprise_quiz,59,survey-multi-choice,,
1513,3_ramp_blue,,,,,,,3,,,,,,,,,,,,0.0-26.0,,,,0,2062,,"<p>Thank you for participating!</p>You answered 15 out of 16 trials correctly, and will receive a $0.45 bonus.<p>Now you will complete a short survey before finishing the experiment.</p>",,,226464,,,60,html-button-response,,
1513,3_ramp_blue,,,,25,0.45,,3,,,,,,Non-Hispanic,,,,paid attention to combination of ramp and block color and how far it went,Female,0.0-27.0,0.9375,,White,"{'age': '25', 'race': 'White', 'gender': 'Female', 'feedback': 'paid attention to combination of ramp and block color and how far it went', 'ethnicity': 'Non-Hispanic', 'other_race': '', 'other_gender': ''}",24691,,,,,251159,,exit_survey,61,survey-html-form,,
1617,3_ramp_blue,,,,,,,3,,,,,,,[],[],[],,,0.0-0.0,,,,,,,,True,,1428,False,,0,preload,,
1617,3_ramp_blue,,,,,,,3,,,,,,,,,,,,0.0-1.0,,,,,,,,True,,4169,,,1,fullscreen,,
