workerid,proliferate.condition,accuracy,accuracy_bool,age,bonus,correct_img,correct_key,correct_response,ethnicity,failed_audio,failed_images,failed_video,feedback,gender,hidden_img,img_selected,internal_node_id,overall_accuracy,question_order,race,response,rt,rule,stimulus,success,time_elapsed,timeout,trial,trial_index,trial_type,view_history,error
404,color_on,,,,,,,,,[],[],[],,,,,0.0-0.0,,,,,,dark,,True,82,False,,0,preload,,
404,color_on,,,,,,,,,[],[],[],,,,,0.0-1.0,,,,,,dark,,True,140,False,,1,preload,,
404,color_on,,,,,,,,,,,,,,,,0.0-2.0,,,,,,dark,,True,3917,,,2,fullscreen,,
404,color_on,,,,,,,,,,,,,,,,0.0-3.0,,,,0,3523,dark,"<p><b>Consent Form</b></p> <div style=""text-align:left;background-color:lightblue; padding:20px; max-width:900px;""><p><b>Description:</b> Welcome! You are invited to participate in a research study in cognitive psychology. You will be asked to perform various tasks on a computer which may include: looking at images or videos, listening to sounds, reading scenarios, or playing games. You may be asked a number of different questions about making judgments and intepreting people's actions. All information collected will remain confidential. </p> <p> <b>Risks and benefits:</b> Risks involved in this study are the same as those normally associated with using a computer (e.g., mild eye/arm strain). If you have any pre- existing conditions that might make reading and completing a computer-based survey strenuous for you, you should probably elect to not participate in this study. If at any time during the study you feel unable to participate because you are experiencing strain, you may end your participation without penalty. We cannot and do not guarantee or promise that you will receive any benefits from this study. Your decision whether or not to participate in this study will not affect your employment, medical care, and/or grades in school. </p><p><b>Time involvement:</b> Your participation in this experiment will take  5 minutes. </p><p><b> Payment:</b> If recruitment materials indicate payment (e.g., Prolific or other recruitment), you will receive compensation as indicated. </p><p><b>Subject's rights:</b> If you have read this notice and have decided to participate in this project, please understand your participation is voluntary and you have the right to withdraw your consent or discontinue participation at any time without penalty or loss of benefits to which you are otherwise entitled. You have the right to refuse to answer particular questions. Your individual privacy will be maintained in all published and written data resulting from the study. </p><p><b>Contact information:</b> If you have any questions, concerns or complaints about this research study, its procedures, or risks and benefits, you should ask the Protocol Director, (Professor Tobias Gerstenberg, Phone: (650) 725-2431; Email: gerstenberg@stanford.edu). </p><p><b>Independent contact:</b> If you are not satisfied with how this study is being conducted, or if you have any concerns, complaints, or general questions about the research or your rights as a participant, please contact the Stanford Institutional Review Board (IRB) to speak to someone independent of the research team via email at irb2-manager@lists.stanford.edu, or via phone at (650) 723-2480 or toll free at 1-866-680-2906. You can also write to the Stanford IRB, Stanford University, 3000 El Camino Real, Five Palo Alto Square, 4th Floor, Palo Alto, CA 94306. </p><p>You may want to print a copy of this consent form to keep. By clicking the button below, you acknowledge that you have read the above information, that you are 18 years of age, or older and give your consent to participate in our internet-based study and consent for us to analyze the resulting data. </p> </div><p> Do you agree with the terms of the experiment as explained above? </p>",,7442,,,3,html-button-response,,
404,color_on,,,,,,,,,,,,,,,,0.0-4.0-0.0,,,,,18695,dark,,,26138,,instructions_pt1,4,instructions,"[{'page_index': 0, 'viewing_time': 2724}, {'page_index': 1, 'viewing_time': 3372}, {'page_index': 2, 'viewing_time': 2760}, {'page_index': 3, 'viewing_time': 7056}, {'page_index': 4, 'viewing_time': 2782}]",
404,color_on,True,,,,,,j,,,,,,,,,0.0-4.0-1.0-0.0,,,,j,7473,dark,blicket_images/red_pyramid.jpg,,33619,,comprehension_quiz,5,image-keyboard-response,,
404,color_on,True,,,,,, ,,,,,,,,,0.0-4.0-1.0-1.0,,,, ,1854,dark,blicket_images/red_pyramid_on.jpg,,35477,,comprehension_quiz,6,image-keyboard-response,,
404,color_on,True,,,,,,f,,,,,,,,,0.0-4.0-1.0-2.0,,,,f,2352,dark,blicket_images/purple_prism.jpg,,37830,,comprehension_quiz,7,image-keyboard-response,,
404,color_on,True,,,,,, ,,,,,,,,,0.0-4.0-1.0-3.0,,,, ,2365,dark,blicket_images/purple_prism_off.jpg,,40199,,comprehension_quiz,8,image-keyboard-response,,
404,color_on,,,,,,,,,,,,,,,,0.0-5.0,,,,,33881,dark,,,74084,,,9,instructions,"[{'page_index': 0, 'viewing_time': 2695}, {'page_index': 1, 'viewing_time': 1682}, {'page_index': 2, 'viewing_time': 928}, {'page_index': 3, 'viewing_time': 1336}, {'page_index': 4, 'viewing_time': 998}, {'page_index': 5, 'viewing_time': 7076}, {'page_index': 6, 'viewing_time': 13302}, {'page_index': 7, 'viewing_time': 4692}, {'page_index': 8, 'viewing_time': 1172}]",
404,color_on,False,0,,,,j,on,,,,,,,,,0.0-6.0,,,,f,2610,dark,blicket_images/dc.jpg,,76695,,blicket,10,image-keyboard-response,,
404,color_on,,,,,,,,,,,,,,blicket_images/dc.jpg,,0.0-7.0,,,, ,2420,dark,blicket_images/dc_on.jpg,,79120,,feedback,11,image-keyboard-response,,
404,color_on,True,1,,,,f,off,,,,,,,,,0.0-8.0,,,,f,1580,dark,blicket_images/lc.jpg,,80703,,blicket,12,image-keyboard-response,,
404,color_on,,,,,,,,,,,,,,blicket_images/lc.jpg,,0.0-9.0,,,, ,1749,dark,blicket_images/lc_off.jpg,,82455,,feedback,13,image-keyboard-response,,
404,color_on,True,1,,,,j,on,,,,,,,,,0.0-10.0,,,,j,2069,dark,blicket_images/dc.jpg,,84527,,blicket,14,image-keyboard-response,,
404,color_on,,,,,,,,,,,,,,blicket_images/dc.jpg,,0.0-11.0,,,, ,1237,dark,blicket_images/dc_on.jpg,,85766,,feedback,15,image-keyboard-response,,
404,color_on,True,1,,,,f,off,,,,,,,,,0.0-12.0,,,,f,2120,dark,blicket_images/ls.jpg,,87887,,blicket,16,image-keyboard-response,,
404,color_on,,,,,,,,,,,,,,blicket_images/ls.jpg,,0.0-13.0,,,, ,2527,dark,blicket_images/ls_off.jpg,,90416,,feedback,17,image-keyboard-response,,
404,color_on,True,1,,,,j,on,,,,,,,,,0.0-14.0,,,,j,2748,dark,blicket_images/ds.jpg,,93167,,blicket,18,image-keyboard-response,,
404,color_on,,,,,,,,,,,,,,blicket_images/ds.jpg,,0.0-15.0,,,, ,1014,dark,blicket_images/ds_on.jpg,,94183,,feedback,19,image-keyboard-response,,
404,color_on,True,1,,,,f,off,,,,,,,,,0.0-16.0,,,,f,1126,dark,blicket_images/ls.jpg,,95310,,blicket,20,image-keyboard-response,,
404,color_on,,,,,,,,,,,,,,blicket_images/ls.jpg,,0.0-17.0,,,, ,894,dark,blicket_images/ls_off.jpg,,96206,,feedback,21,image-keyboard-response,,
404,color_on,True,1,,,,j,on,,,,,,,,,0.0-18.0,,,,j,974,dark,blicket_images/ds.jpg,,97182,,blicket,22,image-keyboard-response,,
404,color_on,,,,,,,,,,,,,,blicket_images/ds.jpg,,0.0-19.0,,,, ,901,dark,blicket_images/ds_on.jpg,,98085,,feedback,23,image-keyboard-response,,
404,color_on,True,1,,,,f,off,,,,,,,,,0.0-20.0,,,,f,1656,dark,blicket_images/lc.jpg,,99742,,blicket,24,image-keyboard-response,,
404,color_on,,,,,,,,,,,,,,blicket_images/lc.jpg,,0.0-21.0,,,, ,1007,dark,blicket_images/lc_off.jpg,,100760,,feedback,25,image-keyboard-response,,
404,color_on,True,1,,,,f,off,,,,,,,,,0.0-22.0,,,,f,1228,dark,blicket_images/ls.jpg,,101991,,blicket,26,image-keyboard-response,,
404,color_on,,,,,,,,,,,,,,blicket_images/ls.jpg,,0.0-23.0,,,, ,893,dark,blicket_images/ls_off.jpg,,102873,,feedback,27,image-keyboard-response,,
404,color_on,True,1,,,,j,on,,,,,,,,,0.0-24.0,,,,j,1262,dark,blicket_images/dc.jpg,,104137,,blicket,28,image-keyboard-response,,
404,color_on,,,,,,,,,,,,,,blicket_images/dc.jpg,,0.0-25.0,,,, ,886,dark,blicket_images/dc_on.jpg,,105025,,feedback,29,image-keyboard-response,,
404,color_on,True,1,,,,f,off,,,,,,,,,0.0-26.0,,,,f,1438,dark,blicket_images/lc.jpg,,106465,,blicket,30,image-keyboard-response,,
404,color_on,,,,,,,,,,,,,,blicket_images/lc.jpg,,0.0-27.0,,,, ,966,dark,blicket_images/lc_off.jpg,,107433,,feedback,31,image-keyboard-response,,
404,color_on,True,1,,,,j,on,,,,,,,,,0.0-28.0,,,,j,1182,dark,blicket_images/ds.jpg,,108617,,blicket,32,image-keyboard-response,,
404,color_on,,,,,,,,,,,,,,blicket_images/ds.jpg,,0.0-29.0,,,, ,934,dark,blicket_images/ds_on.jpg,,109553,,feedback,33,image-keyboard-response,,
404,color_on,True,1,,,,f,off,,,,,,,,,0.0-30.0,,,,f,2319,dark,blicket_images/ls.jpg,,111875,,blicket,34,image-keyboard-response,,
404,color_on,,,,,,,,,,,,,,blicket_images/ls.jpg,,0.0-31.0,,,, ,692,dark,blicket_images/ls_off.jpg,,112569,,feedback,35,image-keyboard-response,,
404,color_on,True,1,,,,f,off,,,,,,,,,0.0-32.0,,,,f,1678,dark,blicket_images/lc.jpg,,114257,,blicket,36,image-keyboard-response,,
404,color_on,,,,,,,,,,,,,,blicket_images/lc.jpg,,0.0-33.0,,,, ,662,dark,blicket_images/lc_off.jpg,,114921,,feedback,37,image-keyboard-response,,
404,color_on,True,1,,,,j,on,,,,,,,,,0.0-34.0,,,,j,1630,dark,blicket_images/ds.jpg,,116553,,blicket,38,image-keyboard-response,,
404,color_on,,,,,,,,,,,,,,blicket_images/ds.jpg,,0.0-35.0,,,, ,3446,dark,blicket_images/ds_on.jpg,,120001,,feedback,39,image-keyboard-response,,
404,color_on,True,1,,,,j,on,,,,,,,,,0.0-36.0,,,,j,950,dark,blicket_images/dc.jpg,,120953,,blicket,40,image-keyboard-response,,
404,color_on,,,,,,,,,,,,,,blicket_images/dc.jpg,,0.0-37.0,,,, ,630,dark,blicket_images/dc_on.jpg,,121585,,feedback,41,image-keyboard-response,,
404,color_on,True,1,,,blicket_images/dc.jpg,,dc,,,,,,,,blicket_images/dc.jpg,0.0-38.0,,,,dc,4717,dark,"Which of these options shows the image from the last trial, that you just saw?",,126307,,pop_quiz,42,html-button-response,,
404,color_on,True,1,,,,,"['dc', 'ds']",,,,,,,,,0.0-39.0,,[0],,"['dc', 'ds']",4958,dark,,,131269,,rule_question,43,survey-multi-select,,
404,color_on,,,,,,,,,,,,,,,,0.0-40.0,,,,0,3148,dark,"<p>Thank you for participating!</p>You answered 15 out of 16 trials correctly, and will recieve a $0.75 bonus.<p>Now you will complete a short survey before finishing the experiment.</p>",,134418,,,44,html-button-response,,
404,color_on,,,48,0.75,,,,Non-Hispanic,,,,I paid attention to shape and color to determine what made a blicket.,Female,,,0.0-41.0,0.9375,,White,"{'age': '48', 'race': 'White', 'gender': 'Female', 'feedback': 'I paid attention to shape and color to determine what made a blicket.', 'ethnicity': 'Non-Hispanic', 'other_race': '', 'other_gender': ''}",29393,dark,,,163826,,exit_survey,45,survey-html-form,,
438,color_on,,,,,,,,,[],[],[],,,,,0.0-0.0,,,,,,dark,,True,238,False,,0,preload,,
438,color_on,,,,,,,,,[],[],[],,,,,0.0-1.0,,,,,,dark,,True,458,False,,1,preload,,
438,color_on,,,,,,,,,,,,,,,,0.0-2.0,,,,,,dark,,True,4027,,,2,fullscreen,,
438,color_on,,,,,,,,,,,,,,,,0.0-3.0,,,,0,2853,dark,"<p><b>Consent Form</b></p> <div style=""text-align:left;background-color:lightblue; padding:20px; max-width:900px;""><p><b>Description:</b> Welcome! You are invited to participate in a research study in cognitive psychology. You will be asked to perform various tasks on a computer which may include: looking at images or videos, listening to sounds, reading scenarios, or playing games. You may be asked a number of different questions about making judgments and intepreting people's actions. All information collected will remain confidential. </p> <p> <b>Risks and benefits:</b> Risks involved in this study are the same as those normally associated with using a computer (e.g., mild eye/arm strain). If you have any pre- existing conditions that might make reading and completing a computer-based survey strenuous for you, you should probably elect to not participate in this study. If at any time during the study you feel unable to participate because you are experiencing strain, you may end your participation without penalty. We cannot and do not guarantee or promise that you will receive any benefits from this study. Your decision whether or not to participate in this study will not affect your employment, medical care, and/or grades in school. </p><p><b>Time involvement:</b> Your participation in this experiment will take  5 minutes. </p><p><b> Payment:</b> If recruitment materials indicate payment (e.g., Prolific or other recruitment), you will receive compensation as indicated. </p><p><b>Subject's rights:</b> If you have read this notice and have decided to participate in this project, please understand your participation is voluntary and you have the right to withdraw your consent or discontinue participation at any time without penalty or loss of benefits to which you are otherwise entitled. You have the right to refuse to answer particular questions. Your individual privacy will be maintained in all published and written data resulting from the study. </p><p><b>Contact information:</b> If you have any questions, concerns or complaints about this research study, its procedures, or risks and benefits, you should ask the Protocol Director, (Professor Tobias Gerstenberg, Phone: (650) 725-2431; Email: gerstenberg@stanford.edu). </p><p><b>Independent contact:</b> If you are not satisfied with how this study is being conducted, or if you have any concerns, complaints, or general questions about the research or your rights as a participant, please contact the Stanford Institutional Review Board (IRB) to speak to someone independent of the research team via email at irb2-manager@lists.stanford.edu, or via phone at (650) 723-2480 or toll free at 1-866-680-2906. You can also write to the Stanford IRB, Stanford University, 3000 El Camino Real, Five Palo Alto Square, 4th Floor, Palo Alto, CA 94306. </p><p>You may want to print a copy of this consent form to keep. By clicking the button below, you acknowledge that you have read the above information, that you are 18 years of age, or older and give your consent to participate in our internet-based study and consent for us to analyze the resulting data. </p> </div><p> Do you agree with the terms of the experiment as explained above? </p>",,6881,,,3,html-button-response,,
438,color_on,,,,,,,,,,,,,,,,0.0-4.0-0.0,,,,,19142,dark,,,26023,,instructions_pt1,4,instructions,"[{'page_index': 0, 'viewing_time': 3591}, {'page_index': 1, 'viewing_time': 4646}, {'page_index': 2, 'viewing_time': 2510}, {'page_index': 3, 'viewing_time': 4714}, {'page_index': 4, 'viewing_time': 3680}]",
438,color_on,True,,,,,,j,,,,,,,,,0.0-4.0-1.0-0.0,,,,j,10841,dark,blicket_images/red_pyramid.jpg,,36871,,comprehension_quiz,5,image-keyboard-response,,
438,color_on,True,,,,,, ,,,,,,,,,0.0-4.0-1.0-1.0,,,, ,3603,dark,blicket_images/red_pyramid_on.jpg,,40475,,comprehension_quiz,6,image-keyboard-response,,
438,color_on,True,,,,,,f,,,,,,,,,0.0-4.0-1.0-2.0,,,,f,8486,dark,blicket_images/purple_prism.jpg,,48962,,comprehension_quiz,7,image-keyboard-response,,
438,color_on,True,,,,,, ,,,,,,,,,0.0-4.0-1.0-3.0,,,, ,1959,dark,blicket_images/purple_prism_off.jpg,,50922,,comprehension_quiz,8,image-keyboard-response,,
438,color_on,,,,,,,,,,,,,,,,0.0-5.0,,,,,42161,dark,,,93085,,,9,instructions,"[{'page_index': 0, 'viewing_time': 3545}, {'page_index': 1, 'viewing_time': 1878}, {'page_index': 2, 'viewing_time': 1014}, {'page_index': 3, 'viewing_time': 1614}, {'page_index': 4, 'viewing_time': 1520}, {'page_index': 5, 'viewing_time': 6492}, {'page_index': 6, 'viewing_time': 18008}, {'page_index': 7, 'viewing_time': 6850}, {'page_index': 8, 'viewing_time': 1240}]",
438,color_on,True,1,,,,j,on,,,,,,,,,0.0-6.0,,,,j,4398,dark,blicket_images/dc.jpg,,97484,,blicket,10,image-keyboard-response,,
438,color_on,,,,,,,,,,,,,,blicket_images/dc.jpg,,0.0-7.0,,,, ,1907,dark,blicket_images/dc_on.jpg,,99393,,feedback,11,image-keyboard-response,,
438,color_on,True,1,,,,f,off,,,,,,,,,0.0-8.0,,,,f,4754,dark,blicket_images/ls.jpg,,104148,,blicket,12,image-keyboard-response,,
438,color_on,,,,,,,,,,,,,,blicket_images/ls.jpg,,0.0-9.0,,,, ,1927,dark,blicket_images/ls_off.jpg,,106076,,feedback,13,image-keyboard-response,,
438,color_on,False,0,,,,f,off,,,,,,,,,0.0-10.0,,,,j,1293,dark,blicket_images/lc.jpg,,107370,,blicket,14,image-keyboard-response,,
438,color_on,,,,,,,,,,,,,,blicket_images/lc.jpg,,0.0-11.0,,,, ,1208,dark,blicket_images/lc_off.jpg,,108579,,feedback,15,image-keyboard-response,,
438,color_on,True,1,,,,j,on,,,,,,,,,0.0-12.0,,,,j,1378,dark,blicket_images/ds.jpg,,109960,,blicket,16,image-keyboard-response,,
438,color_on,,,,,,,,,,,,,,blicket_images/ds.jpg,,0.0-13.0,,,, ,2516,dark,blicket_images/ds_on.jpg,,112477,,feedback,17,image-keyboard-response,,
438,color_on,True,1,,,,f,off,,,,,,,,,0.0-14.0,,,,f,1803,dark,blicket_images/lc.jpg,,114281,,blicket,18,image-keyboard-response,,
438,color_on,,,,,,,,,,,,,,blicket_images/lc.jpg,,0.0-15.0,,,, ,3015,dark,blicket_images/lc_off.jpg,,117296,,feedback,19,image-keyboard-response,,
438,color_on,True,1,,,,j,on,,,,,,,,,0.0-16.0,,,,j,4589,dark,blicket_images/dc.jpg,,121885,,blicket,20,image-keyboard-response,,
438,color_on,,,,,,,,,,,,,,blicket_images/dc.jpg,,0.0-17.0,,,, ,2470,dark,blicket_images/dc_on.jpg,,124356,,feedback,21,image-keyboard-response,,
438,color_on,True,1,,,,f,off,,,,,,,,,0.0-18.0,,,,f,1807,dark,blicket_images/lc.jpg,,126164,,blicket,22,image-keyboard-response,,
438,color_on,,,,,,,,,,,,,,blicket_images/lc.jpg,,0.0-19.0,,,, ,2958,dark,blicket_images/lc_off.jpg,,129123,,feedback,23,image-keyboard-response,,
438,color_on,True,1,,,,f,off,,,,,,,,,0.0-20.0,,,,f,1643,dark,blicket_images/ls.jpg,,130767,,blicket,24,image-keyboard-response,,
438,color_on,,,,,,,,,,,,,,blicket_images/ls.jpg,,0.0-21.0,,,, ,799,dark,blicket_images/ls_off.jpg,,131566,,feedback,25,image-keyboard-response,,
438,color_on,True,1,,,,j,on,,,,,,,,,0.0-22.0,,,,j,2523,dark,blicket_images/ds.jpg,,134090,,blicket,26,image-keyboard-response,,
438,color_on,,,,,,,,,,,,,,blicket_images/ds.jpg,,0.0-23.0,,,, ,1795,dark,blicket_images/ds_on.jpg,,135887,,feedback,27,image-keyboard-response,,
438,color_on,True,1,,,,j,on,,,,,,,,,0.0-24.0,,,,j,1862,dark,blicket_images/dc.jpg,,137749,,blicket,28,image-keyboard-response,,
438,color_on,,,,,,,,,,,,,,blicket_images/dc.jpg,,0.0-25.0,,,, ,739,dark,blicket_images/dc_on.jpg,,138489,,feedback,29,image-keyboard-response,,
438,color_on,True,1,,,,j,on,,,,,,,,,0.0-26.0,,,,j,1615,dark,blicket_images/ds.jpg,,140105,,blicket,30,image-keyboard-response,,
438,color_on,,,,,,,,,,,,,,blicket_images/ds.jpg,,0.0-27.0,,,, ,925,dark,blicket_images/ds_on.jpg,,141031,,feedback,31,image-keyboard-response,,
438,color_on,True,1,,,,f,off,,,,,,,,,0.0-28.0,,,,f,1129,dark,blicket_images/ls.jpg,,142161,,blicket,32,image-keyboard-response,,
438,color_on,,,,,,,,,,,,,,blicket_images/ls.jpg,,0.0-29.0,,,, ,959,dark,blicket_images/ls_off.jpg,,143121,,feedback,33,image-keyboard-response,,
438,color_on,True,1,,,,j,on,,,,,,,,,0.0-30.0,,,,j,2018,dark,blicket_images/ds.jpg,,145140,,blicket,34,image-keyboard-response,,
438,color_on,,,,,,,,,,,,,,blicket_images/ds.jpg,,0.0-31.0,,,, ,702,dark,blicket_images/ds_on.jpg,,145842,,feedback,35,image-keyboard-response,,
438,color_on,True,1,,,,j,on,,,,,,,,,0.0-32.0,,,,j,1259,dark,blicket_images/dc.jpg,,147101,,blicket,36,image-keyboard-response,,
438,color_on,,,,,,,,,,,,,,blicket_images/dc.jpg,,0.0-33.0,,,, ,666,dark,blicket_images/dc_on.jpg,,147768,,feedback,37,image-keyboard-response,,
438,color_on,True,1,,,,j,on,,,,,,,,,0.0-34.0,,,,j,1031,dark,blicket_images/ds.jpg,,148802,,blicket,38,image-keyboard-response,,
438,color_on,,,,,,,,,,,,,,blicket_images/ds.jpg,,0.0-35.0,,,, ,739,dark,blicket_images/ds_on.jpg,,149542,,feedback,39,image-keyboard-response,,
438,color_on,True,1,,,,j,on,,,,,,,,,0.0-36.0,,,,j,724,dark,blicket_images/dc.jpg,,150267,,blicket,40,image-keyboard-response,,
438,color_on,,,,,,,,,,,,,,blicket_images/dc.jpg,,0.0-37.0,,,, ,913,dark,blicket_images/dc_on.jpg,,151181,,feedback,41,image-keyboard-response,,
438,color_on,True,1,,,blicket_images/dc.jpg,,dc,,,,,,,,blicket_images/dc.jpg,0.0-38.0,,,,dc,4557,dark,"Which of these options shows the image from the last trial, that you just saw?",,155739,,pop_quiz,42,html-button-response,,
438,color_on,True,1,,,,,"['dc', 'ds']",,,,,,,,,0.0-39.0,,[0],,"['dc', 'ds']",8792,dark,,,164536,,rule_question,43,survey-multi-select,,
438,color_on,,,,,,,,,,,,,,,,0.0-40.0,,,,0,4890,dark,"<p>Thank you for participating!</p>You answered 15 out of 16 trials correctly, and will recieve a $0.75 bonus.<p>Now you will complete a short survey before finishing the experiment.</p>",,169427,,,44,html-button-response,,
438,color_on,,,62,0.75,,,,Non-Hispanic,,,,Got the first two by accident and then went with a dark theme.,Male,,,0.0-41.0,0.9375,,White,"{'age': '62', 'race': 'White', 'gender': 'Male', 'feedback': 'Got the first two by accident and then went with a dark theme.', 'ethnicity': 'Non-Hispanic', 'other_race': '', 'other_gender': ''}",46372,dark,,,215799,,exit_survey,45,survey-html-form,,
343,color_on,,,,,,,,,[],[],[],,,,,0.0-0.0,,,,,,dark,,True,454,False,,0,preload,,
343,color_on,,,,,,,,,[],[],[],,,,,0.0-1.0,,,,,,dark,,True,1022,False,,1,preload,,
343,color_on,,,,,,,,,,,,,,,,0.0-2.0,,,,,,dark,,True,4104,,,2,fullscreen,,
343,color_on,,,,,,,,,,,,,,,,0.0-3.0,,,,0,4760,dark,"<p><b>Consent Form</b></p> <div style=""text-align:left;background-color:lightblue; padding:20px; max-width:900px;""><p><b>Description:</b> Welcome! You are invited to participate in a research study in cognitive psychology. You will be asked to perform various tasks on a computer which may include: looking at images or videos, listening to sounds, reading scenarios, or playing games. You may be asked a number of different questions about making judgments and intepreting people's actions. All information collected will remain confidential. </p> <p> <b>Risks and benefits:</b> Risks involved in this study are the same as those normally associated with using a computer (e.g., mild eye/arm strain). If you have any pre- existing conditions that might make reading and completing a computer-based survey strenuous for you, you should probably elect to not participate in this study. If at any time during the study you feel unable to participate because you are experiencing strain, you may end your participation without penalty. We cannot and do not guarantee or promise that you will receive any benefits from this study. Your decision whether or not to participate in this study will not affect your employment, medical care, and/or grades in school. </p><p><b>Time involvement:</b> Your participation in this experiment will take  5 minutes. </p><p><b> Payment:</b> If recruitment materials indicate payment (e.g., Prolific or other recruitment), you will receive compensation as indicated. </p><p><b>Subject's rights:</b> If you have read this notice and have decided to participate in this project, please understand your participation is voluntary and you have the right to withdraw your consent or discontinue participation at any time without penalty or loss of benefits to which you are otherwise entitled. You have the right to refuse to answer particular questions. Your individual privacy will be maintained in all published and written data resulting from the study. </p><p><b>Contact information:</b> If you have any questions, concerns or complaints about this research study, its procedures, or risks and benefits, you should ask the Protocol Director, (Professor Tobias Gerstenberg, Phone: (650) 725-2431; Email: gerstenberg@stanford.edu). </p><p><b>Independent contact:</b> If you are not satisfied with how this study is being conducted, or if you have any concerns, complaints, or general questions about the research or your rights as a participant, please contact the Stanford Institutional Review Board (IRB) to speak to someone independent of the research team via email at irb2-manager@lists.stanford.edu, or via phone at (650) 723-2480 or toll free at 1-866-680-2906. You can also write to the Stanford IRB, Stanford University, 3000 El Camino Real, Five Palo Alto Square, 4th Floor, Palo Alto, CA 94306. </p><p>You may want to print a copy of this consent form to keep. By clicking the button below, you acknowledge that you have read the above information, that you are 18 years of age, or older and give your consent to participate in our internet-based study and consent for us to analyze the resulting data. </p> </div><p> Do you agree with the terms of the experiment as explained above? </p>",,8873,,,3,html-button-response,,
343,color_on,,,,,,,,,,,,,,,,0.0-4.0-0.0,,,,,28246,dark,,,37124,,instructions_pt1,4,instructions,"[{'page_index': 0, 'viewing_time': 2337}, {'page_index': 1, 'viewing_time': 4938}, {'page_index': 2, 'viewing_time': 3278}, {'page_index': 3, 'viewing_time': 12761}, {'page_index': 4, 'viewing_time': 4929}]",
343,color_on,True,,,,,,j,,,,,,,,,0.0-4.0-1.0-0.0,,,,j,13118,dark,blicket_images/red_pyramid.jpg,,50277,,comprehension_quiz,5,image-keyboard-response,,
343,color_on,True,,,,,, ,,,,,,,,,0.0-4.0-1.0-1.0,,,, ,1674,dark,blicket_images/red_pyramid_on.jpg,,51957,,comprehension_quiz,6,image-keyboard-response,,
343,color_on,True,,,,,,f,,,,,,,,,0.0-4.0-1.0-2.0,,,,f,11399,dark,blicket_images/purple_prism.jpg,,63361,,comprehension_quiz,7,image-keyboard-response,,
343,color_on,True,,,,,, ,,,,,,,,,0.0-4.0-1.0-3.0,,,, ,1179,dark,blicket_images/purple_prism_off.jpg,,64543,,comprehension_quiz,8,image-keyboard-response,,
343,color_on,,,,,,,,,,,,,,,,0.0-5.0,,,,,73368,dark,,,137916,,,9,instructions,"[{'page_index': 0, 'viewing_time': 7004}, {'page_index': 1, 'viewing_time': 2614}, {'page_index': 2, 'viewing_time': 2643}, {'page_index': 3, 'viewing_time': 2209}, {'page_index': 4, 'viewing_time': 1911}, {'page_index': 5, 'viewing_time': 11433}, {'page_index': 6, 'viewing_time': 33731}, {'page_index': 7, 'viewing_time': 9868}, {'page_index': 8, 'viewing_time': 1953}]",
343,color_on,False,0,,,,f,off,,,,,,,,,0.0-6.0,,,,j,5198,dark,blicket_images/ls.jpg,,143120,,blicket,10,image-keyboard-response,,
343,color_on,,,,,,,,,,,,,,blicket_images/ls.jpg,,0.0-7.0,,,, ,5079,dark,blicket_images/ls_off.jpg,,148210,,feedback,11,image-keyboard-response,,
343,color_on,True,1,,,,j,on,,,,,,,,,0.0-8.0,,,,j,4370,dark,blicket_images/dc.jpg,,152586,,blicket,12,image-keyboard-response,,
343,color_on,,,,,,,,,,,,,,blicket_images/dc.jpg,,0.0-9.0,,,, ,2204,dark,blicket_images/dc_on.jpg,,154795,,feedback,13,image-keyboard-response,,
343,color_on,True,1,,,,j,on,,,,,,,,,0.0-10.0,,,,j,3646,dark,blicket_images/ds.jpg,,158446,,blicket,14,image-keyboard-response,,
343,color_on,,,,,,,,,,,,,,blicket_images/ds.jpg,,0.0-11.0,,,, ,2238,dark,blicket_images/ds_on.jpg,,160689,,feedback,15,image-keyboard-response,,
343,color_on,True,1,,,,j,on,,,,,,,,,0.0-12.0,,,,j,3224,dark,blicket_images/dc.jpg,,163951,,blicket,16,image-keyboard-response,,
343,color_on,,,,,,,,,,,,,,blicket_images/dc.jpg,,0.0-13.0,,,, ,1273,dark,blicket_images/dc_on.jpg,,165228,,feedback,17,image-keyboard-response,,
343,color_on,True,1,,,,f,off,,,,,,,,,0.0-14.0,,,,f,2031,dark,blicket_images/ls.jpg,,167264,,blicket,18,image-keyboard-response,,
343,color_on,,,,,,,,,,,,,,blicket_images/ls.jpg,,0.0-15.0,,,, ,1351,dark,blicket_images/ls_off.jpg,,168618,,feedback,19,image-keyboard-response,,
343,color_on,True,1,,,,f,off,,,,,,,,,0.0-16.0,,,,f,2438,dark,blicket_images/lc.jpg,,171061,,blicket,20,image-keyboard-response,,
343,color_on,,,,,,,,,,,,,,blicket_images/lc.jpg,,0.0-17.0,,,, ,1439,dark,blicket_images/lc_off.jpg,,172504,,feedback,21,image-keyboard-response,,
343,color_on,True,1,,,,j,on,,,,,,,,,0.0-18.0,,,,j,2461,dark,blicket_images/ds.jpg,,174972,,blicket,22,image-keyboard-response,,
343,color_on,,,,,,,,,,,,,,blicket_images/ds.jpg,,0.0-19.0,,,, ,918,dark,blicket_images/ds_on.jpg,,175892,,feedback,23,image-keyboard-response,,
343,color_on,True,1,,,,f,off,,,,,,,,,0.0-20.0,,,,f,1739,dark,blicket_images/ls.jpg,,177634,,blicket,24,image-keyboard-response,,
343,color_on,,,,,,,,,,,,,,blicket_images/ls.jpg,,0.0-21.0,,,, ,885,dark,blicket_images/ls_off.jpg,,178524,,feedback,25,image-keyboard-response,,
343,color_on,True,1,,,,j,on,,,,,,,,,0.0-22.0,,,,j,2712,dark,blicket_images/ds.jpg,,181238,,blicket,26,image-keyboard-response,,
343,color_on,,,,,,,,,,,,,,blicket_images/ds.jpg,,0.0-23.0,,,, ,742,dark,blicket_images/ds_on.jpg,,182041,,feedback,27,image-keyboard-response,,
343,color_on,True,1,,,,f,off,,,,,,,,,0.0-24.0,,,,f,2318,dark,blicket_images/lc.jpg,,184363,,blicket,28,image-keyboard-response,,
343,color_on,,,,,,,,,,,,,,blicket_images/lc.jpg,,0.0-25.0,,,, ,939,dark,blicket_images/lc_off.jpg,,185305,,feedback,29,image-keyboard-response,,
343,color_on,True,1,,,,j,on,,,,,,,,,0.0-26.0,,,,j,1847,dark,blicket_images/dc.jpg,,187155,,blicket,30,image-keyboard-response,,
343,color_on,,,,,,,,,,,,,,blicket_images/dc.jpg,,0.0-27.0,,,, ,1233,dark,blicket_images/dc_on.jpg,,188395,,feedback,31,image-keyboard-response,,
343,color_on,True,1,,,,j,on,,,,,,,,,0.0-28.0,,,,j,2437,dark,blicket_images/ds.jpg,,190835,,blicket,32,image-keyboard-response,,
343,color_on,,,,,,,,,,,,,,blicket_images/ds.jpg,,0.0-29.0,,,, ,859,dark,blicket_images/ds_on.jpg,,191699,,feedback,33,image-keyboard-response,,
343,color_on,True,1,,,,j,on,,,,,,,,,0.0-30.0,,,,j,1916,dark,blicket_images/dc.jpg,,193619,,blicket,34,image-keyboard-response,,
343,color_on,,,,,,,,,,,,,,blicket_images/dc.jpg,,0.0-31.0,,,, ,722,dark,blicket_images/dc_on.jpg,,194345,,feedback,35,image-keyboard-response,,
343,color_on,True,1,,,,f,off,,,,,,,,,0.0-32.0,,,,f,1816,dark,blicket_images/lc.jpg,,196165,,blicket,36,image-keyboard-response,,
343,color_on,,,,,,,,,,,,,,blicket_images/lc.jpg,,0.0-33.0,,,, ,721,dark,blicket_images/lc_off.jpg,,196890,,feedback,37,image-keyboard-response,,
343,color_on,True,1,,,,f,off,,,,,,,,,0.0-34.0,,,,f,1346,dark,blicket_images/ls.jpg,,198240,,blicket,38,image-keyboard-response,,
343,color_on,,,,,,,,,,,,,,blicket_images/ls.jpg,,0.0-35.0,,,, ,742,dark,blicket_images/ls_off.jpg,,198986,,feedback,39,image-keyboard-response,,
343,color_on,True,1,,,,j,on,,,,,,,,,0.0-36.0,,,,j,1110,dark,blicket_images/dc.jpg,,200101,,blicket,40,image-keyboard-response,,
343,color_on,,,,,,,,,,,,,,blicket_images/dc.jpg,,0.0-37.0,,,, ,920,dark,blicket_images/dc_on.jpg,,201027,,feedback,41,image-keyboard-response,,
343,color_on,False,0,,,blicket_images/dc.jpg,,dc,,,,,,,,blicket_images/ds.jpg,0.0-38.0,,,,ds,9835,dark,"Which of these options shows the image from the last trial, that you just saw?",,210871,,pop_quiz,42,html-button-response,,
343,color_on,True,1,,,,,"['dc', 'ds']",,,,,,,,,0.0-39.0,,[0],,"['dc', 'ds']",8462,dark,,,219365,,rule_question,43,survey-multi-select,,
343,color_on,,,,,,,,,,,,,,,,0.0-40.0,,,,0,3319,dark,"<p>Thank you for participating!</p>You answered 15 out of 16 trials correctly, and will recieve a $0.75 bonus.<p>Now you will complete a short survey before finishing the experiment.</p>",,222696,,,44,html-button-response,,
343,color_on,,,19,0.75,,,,Non-Hispanic,,,,"At first, I thought that the light-colored meant it was on, so almost like the light was on. But I came to find out the dark meant it was on ",Female,,,0.0-41.0,0.9375,,White,"{'age': '19', 'race': 'White', 'gender': 'Female', 'feedback': 'At first, I thought that the light-colored meant it was on, so almost like the light was on. But I came to find out the dark meant it was on ', 'ethnicity': 'Non-Hispanic', 'other_race': '', 'other_gender': ''}",62633,dark,,,285342,,exit_survey,45,survey-html-form,,
390,color_on,,,,,,,,,[],[],[],,,,,0.0-0.0,,,,,,dark,,True,258,False,,0,preload,,
390,color_on,,,,,,,,,[],[],[],,,,,0.0-1.0,,,,,,dark,,True,457,False,,1,preload,,
390,color_on,,,,,,,,,,,,,,,,0.0-2.0,,,,,,dark,,True,4125,,,2,fullscreen,,
390,color_on,,,,,,,,,,,,,,,,0.0-3.0,,,,0,27186,dark,"<p><b>Consent Form</b></p> <div style=""text-align:left;background-color:lightblue; padding:20px; max-width:900px;""><p><b>Description:</b> Welcome! You are invited to participate in a research study in cognitive psychology. You will be asked to perform various tasks on a computer which may include: looking at images or videos, listening to sounds, reading scenarios, or playing games. You may be asked a number of different questions about making judgments and intepreting people's actions. All information collected will remain confidential. </p> <p> <b>Risks and benefits:</b> Risks involved in this study are the same as those normally associated with using a computer (e.g., mild eye/arm strain). If you have any pre- existing conditions that might make reading and completing a computer-based survey strenuous for you, you should probably elect to not participate in this study. If at any time during the study you feel unable to participate because you are experiencing strain, you may end your participation without penalty. We cannot and do not guarantee or promise that you will receive any benefits from this study. Your decision whether or not to participate in this study will not affect your employment, medical care, and/or grades in school. </p><p><b>Time involvement:</b> Your participation in this experiment will take  5 minutes. </p><p><b> Payment:</b> If recruitment materials indicate payment (e.g., Prolific or other recruitment), you will receive compensation as indicated. </p><p><b>Subject's rights:</b> If you have read this notice and have decided to participate in this project, please understand your participation is voluntary and you have the right to withdraw your consent or discontinue participation at any time without penalty or loss of benefits to which you are otherwise entitled. You have the right to refuse to answer particular questions. Your individual privacy will be maintained in all published and written data resulting from the study. </p><p><b>Contact information:</b> If you have any questions, concerns or complaints about this research study, its procedures, or risks and benefits, you should ask the Protocol Director, (Professor Tobias Gerstenberg, Phone: (650) 725-2431; Email: gerstenberg@stanford.edu). </p><p><b>Independent contact:</b> If you are not satisfied with how this study is being conducted, or if you have any concerns, complaints, or general questions about the research or your rights as a participant, please contact the Stanford Institutional Review Board (IRB) to speak to someone independent of the research team via email at irb2-manager@lists.stanford.edu, or via phone at (650) 723-2480 or toll free at 1-866-680-2906. You can also write to the Stanford IRB, Stanford University, 3000 El Camino Real, Five Palo Alto Square, 4th Floor, Palo Alto, CA 94306. </p><p>You may want to print a copy of this consent form to keep. By clicking the button below, you acknowledge that you have read the above information, that you are 18 years of age, or older and give your consent to participate in our internet-based study and consent for us to analyze the resulting data. </p> </div><p> Do you agree with the terms of the experiment as explained above? </p>",,31315,,,3,html-button-response,,
390,color_on,,,,,,,,,,,,,,,,0.0-4.0-0.0,,,,,32047,dark,,,63366,,instructions_pt1,4,instructions,"[{'page_index': 0, 'viewing_time': 5075}, {'page_index': 1, 'viewing_time': 5839}, {'page_index': 2, 'viewing_time': 7872}, {'page_index': 3, 'viewing_time': 9536}, {'page_index': 4, 'viewing_time': 3720}]",
390,color_on,True,,,,,,j,,,,,,,,,0.0-4.0-1.0-0.0,,,,j,17362,dark,blicket_images/red_pyramid.jpg,,80751,,comprehension_quiz,5,image-keyboard-response,,
390,color_on,True,,,,,, ,,,,,,,,,0.0-4.0-1.0-1.0,,,, ,2820,dark,blicket_images/red_pyramid_on.jpg,,83576,,comprehension_quiz,6,image-keyboard-response,,
390,color_on,False,,,,,,f,,,,,,,,,0.0-4.0-1.0-2.0,,,,j,4052,dark,blicket_images/purple_prism.jpg,,87632,,comprehension_quiz,7,image-keyboard-response,,
390,color_on,True,,,,,, ,,,,,,,,,0.0-4.0-1.0-3.0,,,, ,4590,dark,blicket_images/purple_prism_off.jpg,,92226,,comprehension_quiz,8,image-keyboard-response,,
390,color_on,False,,,,,,,,,,,,,,,0.0-4.0-2.0-0.0,,,,0,6609,dark,<p> Oops! You have answered one or more questions incorrectly.</p><p> Please Review the instructions again before continuing with the experiment </p>,,98842,,fail_message,9,html-button-response,,
390,color_on,,,,,,,,,,,,,,,,0.0-4.1-0.1,,,,,11185,dark,,,110034,,instructions_pt1,10,instructions,"[{'page_index': 0, 'viewing_time': 2305}, {'page_index': 1, 'viewing_time': 2352}, {'page_index': 2, 'viewing_time': 3072}, {'page_index': 3, 'viewing_time': 2192}, {'page_index': 4, 'viewing_time': 1264}]",
390,color_on,True,,,,,,j,,,,,,,,,0.0-4.1-1.1-0.1,,,,j,2690,dark,blicket_images/red_pyramid.jpg,,112728,,comprehension_quiz,11,image-keyboard-response,,
390,color_on,True,,,,,, ,,,,,,,,,0.0-4.1-1.1-1.1,,,, ,2222,dark,blicket_images/red_pyramid_on.jpg,,114953,,comprehension_quiz,12,image-keyboard-response,,
390,color_on,True,,,,,,f,,,,,,,,,0.0-4.1-1.1-2.1,,,,f,3163,dark,blicket_images/purple_prism.jpg,,118119,,comprehension_quiz,13,image-keyboard-response,,
390,color_on,True,,,,,, ,,,,,,,,,0.0-4.1-1.1-3.1,,,, ,1581,dark,blicket_images/purple_prism_off.jpg,,119704,,comprehension_quiz,14,image-keyboard-response,,
390,color_on,,,,,,,,,,,,,,,,0.0-5.0,,,,,60048,dark,,,179754,,,15,instructions,"[{'page_index': 0, 'viewing_time': 6105}, {'page_index': 1, 'viewing_time': 3344}, {'page_index': 2, 'viewing_time': 2456}, {'page_index': 3, 'viewing_time': 2632}, {'page_index': 4, 'viewing_time': 2664}, {'page_index': 5, 'viewing_time': 14976}, {'page_index': 6, 'viewing_time': 16136}, {'page_index': 7, 'viewing_time': 10176}, {'page_index': 8, 'viewing_time': 1560}]",
390,color_on,False,0,,,,f,off,,,,,,,,,0.0-6.0,,,,j,8996,dark,blicket_images/ls.jpg,,188754,,blicket,16,image-keyboard-response,,
390,color_on,,,,,,,,,,,,,,blicket_images/ls.jpg,,0.0-7.0,,,, ,2702,dark,blicket_images/ls_off.jpg,,191464,,feedback,17,image-keyboard-response,,
390,color_on,True,1,,,,j,on,,,,,,,,,0.0-8.0,,,,j,7559,dark,blicket_images/ds.jpg,,199025,,blicket,18,image-keyboard-response,,
390,color_on,,,,,,,,,,,,,,blicket_images/ds.jpg,,0.0-9.0,,,, ,1411,dark,blicket_images/ds_on.jpg,,200439,,feedback,19,image-keyboard-response,,
390,color_on,True,1,,,,j,on,,,,,,,,,0.0-10.0,,,,j,4517,dark,blicket_images/dc.jpg,,204959,,blicket,20,image-keyboard-response,,
390,color_on,,,,,,,,,,,,,,blicket_images/dc.jpg,,0.0-11.0,,,, ,997,dark,blicket_images/dc_on.jpg,,205959,,feedback,21,image-keyboard-response,,
390,color_on,True,1,,,,f,off,,,,,,,,,0.0-12.0,,,,f,4303,dark,blicket_images/lc.jpg,,210265,,blicket,22,image-keyboard-response,,
390,color_on,,,,,,,,,,,,,,blicket_images/lc.jpg,,0.0-13.0,,,, ,2784,dark,blicket_images/lc_off.jpg,,213079,,feedback,23,image-keyboard-response,,
390,color_on,True,1,,,,f,off,,,,,,,,,0.0-14.0,,,,f,3413,dark,blicket_images/ls.jpg,,216495,,blicket,24,image-keyboard-response,,
390,color_on,,,,,,,,,,,,,,blicket_images/ls.jpg,,0.0-15.0,,,, ,2573,dark,blicket_images/ls_off.jpg,,219071,,feedback,25,image-keyboard-response,,
390,color_on,True,1,,,,j,on,,,,,,,,,0.0-16.0,,,,j,1463,dark,blicket_images/dc.jpg,,220537,,blicket,26,image-keyboard-response,,
390,color_on,,,,,,,,,,,,,,blicket_images/dc.jpg,,0.0-17.0,,,, ,1043,dark,blicket_images/dc_on.jpg,,221583,,feedback,27,image-keyboard-response,,
390,color_on,True,1,,,,f,off,,,,,,,,,0.0-18.0,,,,f,2965,dark,blicket_images/lc.jpg,,224551,,blicket,28,image-keyboard-response,,
390,color_on,,,,,,,,,,,,,,blicket_images/lc.jpg,,0.0-19.0,,,, ,1461,dark,blicket_images/lc_off.jpg,,226015,,feedback,29,image-keyboard-response,,
390,color_on,True,1,,,,f,off,,,,,,,,,0.0-20.0,,,,f,1670,dark,blicket_images/ls.jpg,,227689,,blicket,30,image-keyboard-response,,
390,color_on,,,,,,,,,,,,,,blicket_images/ls.jpg,,0.0-21.0,,,, ,739,dark,blicket_images/ls_off.jpg,,228431,,feedback,31,image-keyboard-response,,
390,color_on,True,1,,,,j,on,,,,,,,,,0.0-22.0,,,,j,3871,dark,blicket_images/ds.jpg,,232306,,blicket,32,image-keyboard-response,,
390,color_on,,,,,,,,,,,,,,blicket_images/ds.jpg,,0.0-23.0,,,, ,747,dark,blicket_images/ds_on.jpg,,233055,,feedback,33,image-keyboard-response,,
390,color_on,True,1,,,,j,on,,,,,,,,,0.0-24.0,,,,j,2124,dark,blicket_images/dc.jpg,,235183,,blicket,34,image-keyboard-response,,
390,color_on,,,,,,,,,,,,,,blicket_images/dc.jpg,,0.0-25.0,,,, ,829,dark,blicket_images/dc_on.jpg,,236015,,feedback,35,image-keyboard-response,,
390,color_on,True,1,,,,j,on,,,,,,,,,0.0-26.0,,,,j,1909,dark,blicket_images/ds.jpg,,237927,,blicket,36,image-keyboard-response,,
390,color_on,,,,,,,,,,,,,,blicket_images/ds.jpg,,0.0-27.0,,,, ,669,dark,blicket_images/ds_on.jpg,,238599,,feedback,37,image-keyboard-response,,
390,color_on,True,1,,,,f,off,,,,,,,,,0.0-28.0,,,,f,1685,dark,blicket_images/lc.jpg,,240287,,blicket,38,image-keyboard-response,,
390,color_on,,,,,,,,,,,,,,blicket_images/lc.jpg,,0.0-29.0,,,, ,1341,dark,blicket_images/lc_off.jpg,,241631,,feedback,39,image-keyboard-response,,
390,color_on,True,1,,,,j,on,,,,,,,,,0.0-30.0,,,,j,3327,dark,blicket_images/ds.jpg,,244961,,blicket,40,image-keyboard-response,,
390,color_on,,,,,,,,,,,,,,blicket_images/ds.jpg,,0.0-31.0,,,, ,1211,dark,blicket_images/ds_on.jpg,,246175,,feedback,41,image-keyboard-response,,
390,color_on,True,1,,,,j,on,,,,,,,,,0.0-32.0,,,,j,1511,dark,blicket_images/dc.jpg,,247689,,blicket,42,image-keyboard-response,,
390,color_on,,,,,,,,,,,,,,blicket_images/dc.jpg,,0.0-33.0,,,, ,651,dark,blicket_images/dc_on.jpg,,248343,,feedback,43,image-keyboard-response,,
390,color_on,True,1,,,,f,off,,,,,,,,,0.0-34.0,,,,f,1477,dark,blicket_images/ls.jpg,,249823,,blicket,44,image-keyboard-response,,
390,color_on,,,,,,,,,,,,,,blicket_images/ls.jpg,,0.0-35.0,,,, ,1941,dark,blicket_images/ls_off.jpg,,251767,,feedback,45,image-keyboard-response,,
390,color_on,True,1,,,,j,on,,,,,,,,,0.0-36.0,,,,j,1037,dark,blicket_images/dc.jpg,,252807,,blicket,46,image-keyboard-response,,
390,color_on,,,,,,,,,,,,,,blicket_images/dc.jpg,,0.0-37.0,,,, ,1076,dark,blicket_images/dc_on.jpg,,253887,,feedback,47,image-keyboard-response,,
390,color_on,False,0,,,blicket_images/dc.jpg,,dc,,,,,,,,blicket_images/ds.jpg,0.0-38.0,,,,ds,14034,dark,"Which of these options shows the image from the last trial, that you just saw?",,267947,,pop_quiz,48,html-button-response,,
390,color_on,True,1,,,,,"['dc', 'ds']",,,,,,,,,0.0-39.0,,[0],,"['dc', 'ds']",19154,dark,,,287126,,rule_question,49,survey-multi-select,,
390,color_on,,,,,,,,,,,,,,,,0.0-40.0,,,,0,6161,dark,"<p>Thank you for participating!</p>You answered 15 out of 16 trials correctly, and will recieve a $0.75 bonus.<p>Now you will complete a short survey before finishing the experiment.</p>",,293297,,,50,html-button-response,,
390,color_on,,,54,0.75,,,,Non-Hispanic,,,,,Female,,,0.0-41.0,0.9375,,White,"{'age': '54', 'race': 'White', 'gender': 'Female', 'feedback': '', 'ethnicity': 'Non-Hispanic', 'other_race': '', 'other_gender': ''}",12429,dark,,,305737,,exit_survey,51,survey-html-form,,
462,color_on,,,,,,,,,[],[],[],,,,,0.0-0.0,,,,,,light,,True,103,False,,0,preload,,
462,color_on,,,,,,,,,[],[],[],,,,,0.0-1.0,,,,,,light,,True,210,False,,1,preload,,
462,color_on,,,,,,,,,,,,,,,,0.0-2.0,,,,,,light,,True,2923,,,2,fullscreen,,
462,color_on,,,,,,,,,,,,,,,,0.0-3.0,,,,0,5691,light,"<p><b>Consent Form</b></p> <div style=""text-align:left;background-color:lightblue; padding:20px; max-width:900px;""><p><b>Description:</b> Welcome! You are invited to participate in a research study in cognitive psychology. You will be asked to perform various tasks on a computer which may include: looking at images or videos, listening to sounds, reading scenarios, or playing games. You may be asked a number of different questions about making judgments and intepreting people's actions. All information collected will remain confidential. </p> <p> <b>Risks and benefits:</b> Risks involved in this study are the same as those normally associated with using a computer (e.g., mild eye/arm strain). If you have any pre- existing conditions that might make reading and completing a computer-based survey strenuous for you, you should probably elect to not participate in this study. If at any time during the study you feel unable to participate because you are experiencing strain, you may end your participation without penalty. We cannot and do not guarantee or promise that you will receive any benefits from this study. Your decision whether or not to participate in this study will not affect your employment, medical care, and/or grades in school. </p><p><b>Time involvement:</b> Your participation in this experiment will take  5 minutes. </p><p><b> Payment:</b> If recruitment materials indicate payment (e.g., Prolific or other recruitment), you will receive compensation as indicated. </p><p><b>Subject's rights:</b> If you have read this notice and have decided to participate in this project, please understand your participation is voluntary and you have the right to withdraw your consent or discontinue participation at any time without penalty or loss of benefits to which you are otherwise entitled. You have the right to refuse to answer particular questions. Your individual privacy will be maintained in all published and written data resulting from the study. </p><p><b>Contact information:</b> If you have any questions, concerns or complaints about this research study, its procedures, or risks and benefits, you should ask the Protocol Director, (Professor Tobias Gerstenberg, Phone: (650) 725-2431; Email: gerstenberg@stanford.edu). </p><p><b>Independent contact:</b> If you are not satisfied with how this study is being conducted, or if you have any concerns, complaints, or general questions about the research or your rights as a participant, please contact the Stanford Institutional Review Board (IRB) to speak to someone independent of the research team via email at irb2-manager@lists.stanford.edu, or via phone at (650) 723-2480 or toll free at 1-866-680-2906. You can also write to the Stanford IRB, Stanford University, 3000 El Camino Real, Five Palo Alto Square, 4th Floor, Palo Alto, CA 94306. </p><p>You may want to print a copy of this consent form to keep. By clicking the button below, you acknowledge that you have read the above information, that you are 18 years of age, or older and give your consent to participate in our internet-based study and consent for us to analyze the resulting data. </p> </div><p> Do you agree with the terms of the experiment as explained above? </p>",,8617,,,3,html-button-response,,
462,color_on,,,,,,,,,,,,,,,,0.0-4.0-0.0,,,,,10563,light,,,19180,,instructions_pt1,4,instructions,"[{'page_index': 0, 'viewing_time': 2171}, {'page_index': 1, 'viewing_time': 2048}, {'page_index': 2, 'viewing_time': 1559}, {'page_index': 3, 'viewing_time': 3046}, {'page_index': 4, 'viewing_time': 1738}]",
462,color_on,True,,,,,,j,,,,,,,,,0.0-4.0-1.0-0.0,,,,j,6198,light,blicket_images/red_pyramid.jpg,,25394,,comprehension_quiz,5,image-keyboard-response,,
462,color_on,True,,,,,, ,,,,,,,,,0.0-4.0-1.0-1.0,,,, ,1365,light,blicket_images/red_pyramid_on.jpg,,26764,,comprehension_quiz,6,image-keyboard-response,,
462,color_on,True,,,,,,f,,,,,,,,,0.0-4.0-1.0-2.0,,,,f,2041,light,blicket_images/purple_prism.jpg,,28808,,comprehension_quiz,7,image-keyboard-response,,
462,color_on,True,,,,,, ,,,,,,,,,0.0-4.0-1.0-3.0,,,, ,597,light,blicket_images/purple_prism_off.jpg,,29410,,comprehension_quiz,8,image-keyboard-response,,
462,color_on,,,,,,,,,,,,,,,,0.0-5.0,,,,,19135,light,,,48549,,,9,instructions,"[{'page_index': 0, 'viewing_time': 4325}, {'page_index': 1, 'viewing_time': 1330}, {'page_index': 2, 'viewing_time': 433}, {'page_index': 3, 'viewing_time': 795}, {'page_index': 4, 'viewing_time': 438}, {'page_index': 5, 'viewing_time': 3125}, {'page_index': 6, 'viewing_time': 3814}, {'page_index': 7, 'viewing_time': 3404}, {'page_index': 8, 'viewing_time': 1471}]",
462,color_on,False,0,,,,j,on,,,,,,,,,0.0-6.0,,,,f,2300,light,blicket_images/ls.jpg,,50852,,blicket,10,image-keyboard-response,,
462,color_on,,,,,,,,,,,,,,blicket_images/ls.jpg,,0.0-7.0,,,, ,1008,light,blicket_images/ls_on.jpg,,51866,,feedback,11,image-keyboard-response,,
462,color_on,True,1,,,,j,on,,,,,,,,,0.0-8.0,,,,j,1713,light,blicket_images/lc.jpg,,53581,,blicket,12,image-keyboard-response,,
462,color_on,,,,,,,,,,,,,,blicket_images/lc.jpg,,0.0-9.0,,,, ,896,light,blicket_images/lc_on.jpg,,54480,,feedback,13,image-keyboard-response,,
462,color_on,True,1,,,,j,on,,,,,,,,,0.0-10.0,,,,j,1495,light,blicket_images/ls.jpg,,55978,,blicket,14,image-keyboard-response,,
462,color_on,,,,,,,,,,,,,,blicket_images/ls.jpg,,0.0-11.0,,,, ,544,light,blicket_images/ls_on.jpg,,56525,,feedback,15,image-keyboard-response,,
462,color_on,True,1,,,,f,off,,,,,,,,,0.0-12.0,,,,f,1982,light,blicket_images/dc.jpg,,58554,,blicket,16,image-keyboard-response,,
462,color_on,,,,,,,,,,,,,,blicket_images/dc.jpg,,0.0-13.0,,,, ,935,light,blicket_images/dc_off.jpg,,59492,,feedback,17,image-keyboard-response,,
462,color_on,True,1,,,,j,on,,,,,,,,,0.0-14.0,,,,j,1297,light,blicket_images/ls.jpg,,60791,,blicket,18,image-keyboard-response,,
462,color_on,,,,,,,,,,,,,,blicket_images/ls.jpg,,0.0-15.0,,,, ,562,light,blicket_images/ls_on.jpg,,61355,,feedback,19,image-keyboard-response,,
462,color_on,True,1,,,,f,off,,,,,,,,,0.0-16.0,,,,f,1161,light,blicket_images/ds.jpg,,62519,,blicket,20,image-keyboard-response,,
462,color_on,,,,,,,,,,,,,,blicket_images/ds.jpg,,0.0-17.0,,,, ,449,light,blicket_images/ds_off.jpg,,62971,,feedback,21,image-keyboard-response,,
462,color_on,True,1,,,,j,on,,,,,,,,,0.0-18.0,,,,j,830,light,blicket_images/lc.jpg,,63803,,blicket,22,image-keyboard-response,,
462,color_on,,,,,,,,,,,,,,blicket_images/lc.jpg,,0.0-19.0,,,, ,436,light,blicket_images/lc_on.jpg,,64241,,feedback,23,image-keyboard-response,,
462,color_on,True,1,,,,j,on,,,,,,,,,0.0-20.0,,,,j,1151,light,blicket_images/ls.jpg,,65394,,blicket,24,image-keyboard-response,,
462,color_on,,,,,,,,,,,,,,blicket_images/ls.jpg,,0.0-21.0,,,, ,411,light,blicket_images/ls_on.jpg,,65806,,feedback,25,image-keyboard-response,,
462,color_on,True,1,,,,f,off,,,,,,,,,0.0-22.0,,,,f,646,light,blicket_images/dc.jpg,,66454,,blicket,26,image-keyboard-response,,
462,color_on,,,,,,,,,,,,,,blicket_images/dc.jpg,,0.0-23.0,,,, ,429,light,blicket_images/dc_off.jpg,,66898,,feedback,27,image-keyboard-response,,
462,color_on,True,1,,,,f,off,,,,,,,,,0.0-24.0,,,,f,1445,light,blicket_images/ds.jpg,,68346,,blicket,28,image-keyboard-response,,
462,color_on,,,,,,,,,,,,,,blicket_images/ds.jpg,,0.0-25.0,,,, ,543,light,blicket_images/ds_off.jpg,,68891,,feedback,29,image-keyboard-response,,
462,color_on,True,1,,,,f,off,,,,,,,,,0.0-26.0,,,,f,702,light,blicket_images/dc.jpg,,69596,,blicket,30,image-keyboard-response,,
462,color_on,,,,,,,,,,,,,,blicket_images/dc.jpg,,0.0-27.0,,,, ,358,light,blicket_images/dc_off.jpg,,69956,,feedback,31,image-keyboard-response,,
462,color_on,True,1,,,,j,on,,,,,,,,,0.0-28.0,,,,j,616,light,blicket_images/lc.jpg,,70575,,blicket,32,image-keyboard-response,,
462,color_on,,,,,,,,,,,,,,blicket_images/lc.jpg,,0.0-29.0,,,, ,344,light,blicket_images/lc_on.jpg,,70921,,feedback,33,image-keyboard-response,,
462,color_on,True,1,,,,f,off,,,,,,,,,0.0-30.0,,,,f,1005,light,blicket_images/ds.jpg,,71929,,blicket,34,image-keyboard-response,,
462,color_on,,,,,,,,,,,,,,blicket_images/ds.jpg,,0.0-31.0,,,, ,418,light,blicket_images/ds_off.jpg,,72350,,feedback,35,image-keyboard-response,,
462,color_on,True,1,,,,f,off,,,,,,,,,0.0-32.0,,,,f,559,light,blicket_images/dc.jpg,,72912,,blicket,36,image-keyboard-response,,
462,color_on,,,,,,,,,,,,,,blicket_images/dc.jpg,,0.0-33.0,,,, ,324,light,blicket_images/dc_off.jpg,,73238,,feedback,37,image-keyboard-response,,
462,color_on,True,1,,,,f,off,,,,,,,,,0.0-34.0,,,,f,654,light,blicket_images/ds.jpg,,73894,,blicket,38,image-keyboard-response,,
462,color_on,,,,,,,,,,,,,,blicket_images/ds.jpg,,0.0-35.0,,,, ,295,light,blicket_images/ds_off.jpg,,74193,,feedback,39,image-keyboard-response,,
462,color_on,True,1,,,,j,on,,,,,,,,,0.0-36.0,,,,j,677,light,blicket_images/lc.jpg,,74872,,blicket,40,image-keyboard-response,,
462,color_on,,,,,,,,,,,,,,blicket_images/lc.jpg,,0.0-37.0,,,, ,316,light,blicket_images/lc_on.jpg,,75191,,feedback,41,image-keyboard-response,,
462,color_on,True,1,,,blicket_images/lc.jpg,,lc,,,,,,,,blicket_images/lc.jpg,0.0-38.0,,,,lc,6150,light,"Which of these options shows the image from the last trial, that you just saw?",,81346,,pop_quiz,42,html-button-response,,
462,color_on,True,1,,,,,"['lc', 'ls']",,,,,,,,,0.0-39.0,,[0],,"['lc', 'ls']",4771,light,,,86129,,rule_question,43,survey-multi-select,,
462,color_on,,,,,,,,,,,,,,,,0.0-40.0,,,,0,1925,light,"<p>Thank you for participating!</p>You answered 15 out of 16 trials correctly, and will recieve a $0.75 bonus.<p>Now you will complete a short survey before finishing the experiment.</p>",,88061,,,44,html-button-response,,
462,color_on,,,34,0.75,,,,Non-Hispanic,,,,I tried to first note if the shape and/or color was the determining factor and then used that information to guide my choices.,Female,,,0.0-41.0,0.9375,,White,"{'age': '34', 'race': 'White', 'gender': 'Female', 'feedback': 'I tried to first note if the shape and/or color was the determining factor and then used that information to guide my choices.', 'ethnicity': 'Non-Hispanic', 'other_race': '', 'other_gender': ''}",37485,light,,,125552,,exit_survey,45,survey-html-form,,
360,color_on,,,,,,,,,[],[],[],,,,,0.0-0.0,,,,,,dark,,True,123,False,,0,preload,,
360,color_on,,,,,,,,,[],[],[],,,,,0.0-1.0,,,,,,dark,,True,229,False,,1,preload,,
360,color_on,,,,,,,,,,,,,,,,0.0-2.0,,,,,,dark,,True,9491,,,2,fullscreen,,
360,color_on,,,,,,,,,,,,,,,,0.0-3.0,,,,0,2181,dark,"<p><b>Consent Form</b></p> <div style=""text-align:left;background-color:lightblue; padding:20px; max-width:900px;""><p><b>Description:</b> Welcome! You are invited to participate in a research study in cognitive psychology. You will be asked to perform various tasks on a computer which may include: looking at images or videos, listening to sounds, reading scenarios, or playing games. You may be asked a number of different questions about making judgments and intepreting people's actions. All information collected will remain confidential. </p> <p> <b>Risks and benefits:</b> Risks involved in this study are the same as those normally associated with using a computer (e.g., mild eye/arm strain). If you have any pre- existing conditions that might make reading and completing a computer-based survey strenuous for you, you should probably elect to not participate in this study. If at any time during the study you feel unable to participate because you are experiencing strain, you may end your participation without penalty. We cannot and do not guarantee or promise that you will receive any benefits from this study. Your decision whether or not to participate in this study will not affect your employment, medical care, and/or grades in school. </p><p><b>Time involvement:</b> Your participation in this experiment will take  5 minutes. </p><p><b> Payment:</b> If recruitment materials indicate payment (e.g., Prolific or other recruitment), you will receive compensation as indicated. </p><p><b>Subject's rights:</b> If you have read this notice and have decided to participate in this project, please understand your participation is voluntary and you have the right to withdraw your consent or discontinue participation at any time without penalty or loss of benefits to which you are otherwise entitled. You have the right to refuse to answer particular questions. Your individual privacy will be maintained in all published and written data resulting from the study. </p><p><b>Contact information:</b> If you have any questions, concerns or complaints about this research study, its procedures, or risks and benefits, you should ask the Protocol Director, (Professor Tobias Gerstenberg, Phone: (650) 725-2431; Email: gerstenberg@stanford.edu). </p><p><b>Independent contact:</b> If you are not satisfied with how this study is being conducted, or if you have any concerns, complaints, or general questions about the research or your rights as a participant, please contact the Stanford Institutional Review Board (IRB) to speak to someone independent of the research team via email at irb2-manager@lists.stanford.edu, or via phone at (650) 723-2480 or toll free at 1-866-680-2906. You can also write to the Stanford IRB, Stanford University, 3000 El Camino Real, Five Palo Alto Square, 4th Floor, Palo Alto, CA 94306. </p><p>You may want to print a copy of this consent form to keep. By clicking the button below, you acknowledge that you have read the above information, that you are 18 years of age, or older and give your consent to participate in our internet-based study and consent for us to analyze the resulting data. </p> </div><p> Do you agree with the terms of the experiment as explained above? </p>",,11674,,,3,html-button-response,,
360,color_on,,,,,,,,,,,,,,,,0.0-4.0-0.0,,,,,17711,dark,,,29386,,instructions_pt1,4,instructions,"[{'page_index': 0, 'viewing_time': 3719}, {'page_index': 1, 'viewing_time': 3000}, {'page_index': 2, 'viewing_time': 3768}, {'page_index': 3, 'viewing_time': 4432}, {'page_index': 4, 'viewing_time': 2792}]",
360,color_on,True,,,,,,j,,,,,,,,,0.0-4.0-1.0-0.0,,,,j,9623,dark,blicket_images/red_pyramid.jpg,,39015,,comprehension_quiz,5,image-keyboard-response,,
360,color_on,True,,,,,, ,,,,,,,,,0.0-4.0-1.0-1.0,,,, ,4687,dark,blicket_images/red_pyramid_on.jpg,,43706,,comprehension_quiz,6,image-keyboard-response,,
360,color_on,False,,,,,,f,,,,,,,,,0.0-4.0-1.0-2.0,,,,j,1143,dark,blicket_images/purple_prism.jpg,,44850,,comprehension_quiz,7,image-keyboard-response,,
360,color_on,True,,,,,, ,,,,,,,,,0.0-4.0-1.0-3.0,,,, ,1734,dark,blicket_images/purple_prism_off.jpg,,46586,,comprehension_quiz,8,image-keyboard-response,,
360,color_on,False,,,,,,,,,,,,,,,0.0-4.0-2.0-0.0,,,,0,4788,dark,<p> Oops! You have answered one or more questions incorrectly.</p><p> Please Review the instructions again before continuing with the experiment </p>,,51378,,fail_message,9,html-button-response,,
360,color_on,,,,,,,,,,,,,,,,0.0-4.1-0.1,,,,,7031,dark,,,58409,,instructions_pt1,10,instructions,"[{'page_index': 0, 'viewing_time': 1159}, {'page_index': 1, 'viewing_time': 1232}, {'page_index': 2, 'viewing_time': 968}, {'page_index': 3, 'viewing_time': 2544}, {'page_index': 4, 'viewing_time': 1128}]",
360,color_on,True,,,,,,j,,,,,,,,,0.0-4.1-1.1-0.1,,,,j,2408,dark,blicket_images/red_pyramid.jpg,,60818,,comprehension_quiz,11,image-keyboard-response,,
360,color_on,True,,,,,, ,,,,,,,,,0.0-4.1-1.1-1.1,,,, ,1950,dark,blicket_images/red_pyramid_on.jpg,,62770,,comprehension_quiz,12,image-keyboard-response,,
360,color_on,True,,,,,,f,,,,,,,,,0.0-4.1-1.1-2.1,,,,f,6166,dark,blicket_images/purple_prism.jpg,,68938,,comprehension_quiz,13,image-keyboard-response,,
360,color_on,True,,,,,, ,,,,,,,,,0.0-4.1-1.1-3.1,,,, ,3765,dark,blicket_images/purple_prism_off.jpg,,72705,,comprehension_quiz,14,image-keyboard-response,,
360,color_on,,,,,,,,,,,,,,,,0.0-5.0,,,,,29312,dark,,,102017,,,15,instructions,"[{'page_index': 0, 'viewing_time': 4855}, {'page_index': 1, 'viewing_time': 1928}, {'page_index': 2, 'viewing_time': 768}, {'page_index': 3, 'viewing_time': 1160}, {'page_index': 4, 'viewing_time': 672}, {'page_index': 5, 'viewing_time': 7496}, {'page_index': 6, 'viewing_time': 5560}, {'page_index': 7, 'viewing_time': 5856}, {'page_index': 8, 'viewing_time': 1016}]",
360,color_on,True,1,,,,j,on,,,,,,,,,0.0-6.0,,,,j,2440,dark,blicket_images/dc.jpg,,104458,,blicket,16,image-keyboard-response,,
360,color_on,,,,,,,,,,,,,,blicket_images/dc.jpg,,0.0-7.0,,,, ,2218,dark,blicket_images/dc_on.jpg,,106681,,feedback,17,image-keyboard-response,,
360,color_on,True,1,,,,f,off,,,,,,,,,0.0-8.0,,,,f,2070,dark,blicket_images/ls.jpg,,108753,,blicket,18,image-keyboard-response,,
360,color_on,,,,,,,,,,,,,,blicket_images/ls.jpg,,0.0-9.0,,,, ,1568,dark,blicket_images/ls_off.jpg,,110322,,feedback,19,image-keyboard-response,,
360,color_on,False,0,,,,f,off,,,,,,,,,0.0-10.0,,,,j,1063,dark,blicket_images/lc.jpg,,111388,,blicket,20,image-keyboard-response,,
360,color_on,,,,,,,,,,,,,,blicket_images/lc.jpg,,0.0-11.0,,,, ,1363,dark,blicket_images/lc_off.jpg,,112753,,feedback,21,image-keyboard-response,,
360,color_on,True,1,,,,j,on,,,,,,,,,0.0-12.0,,,,j,1222,dark,blicket_images/dc.jpg,,113977,,blicket,22,image-keyboard-response,,
360,color_on,,,,,,,,,,,,,,blicket_images/dc.jpg,,0.0-13.0,,,, ,2291,dark,blicket_images/dc_on.jpg,,116270,,feedback,23,image-keyboard-response,,
360,color_on,True,1,,,,f,off,,,,,,,,,0.0-14.0,,,,f,906,dark,blicket_images/lc.jpg,,117178,,blicket,24,image-keyboard-response,,
360,color_on,,,,,,,,,,,,,,blicket_images/lc.jpg,,0.0-15.0,,,, ,326,dark,blicket_images/lc_off.jpg,,117506,,feedback,25,image-keyboard-response,,
360,color_on,True,1,,,,j,on,,,,,,,,,0.0-16.0,,,,j,724,dark,blicket_images/dc.jpg,,118242,,blicket,26,image-keyboard-response,,
360,color_on,,,,,,,,,,,,,,blicket_images/dc.jpg,,0.0-17.0,,,, ,277,dark,blicket_images/dc_on.jpg,,118522,,feedback,27,image-keyboard-response,,
360,color_on,True,1,,,,f,off,,,,,,,,,0.0-18.0,,,,f,790,dark,blicket_images/ls.jpg,,119314,,blicket,28,image-keyboard-response,,
360,color_on,,,,,,,,,,,,,,blicket_images/ls.jpg,,0.0-19.0,,,, ,230,dark,blicket_images/ls_off.jpg,,119547,,feedback,29,image-keyboard-response,,
360,color_on,True,1,,,,j,on,,,,,,,,,0.0-20.0,,,,j,1781,dark,blicket_images/ds.jpg,,121329,,blicket,30,image-keyboard-response,,
360,color_on,,,,,,,,,,,,,,blicket_images/ds.jpg,,0.0-21.0,,,, ,160,dark,blicket_images/ds_on.jpg,,121490,,feedback,31,image-keyboard-response,,
360,color_on,True,1,,,,j,on,,,,,,,,,0.0-22.0,,,,j,2472,dark,blicket_images/dc.jpg,,123963,,blicket,32,image-keyboard-response,,
360,color_on,,,,,,,,,,,,,,blicket_images/dc.jpg,,0.0-23.0,,,, ,406,dark,blicket_images/dc_on.jpg,,124371,,feedback,33,image-keyboard-response,,
360,color_on,True,1,,,,f,off,,,,,,,,,0.0-24.0,,,,f,1142,dark,blicket_images/lc.jpg,,125515,,blicket,34,image-keyboard-response,,
360,color_on,,,,,,,,,,,,,,blicket_images/lc.jpg,,0.0-25.0,,,, ,246,dark,blicket_images/lc_off.jpg,,125763,,feedback,35,image-keyboard-response,,
360,color_on,True,1,,,,j,on,,,,,,,,,0.0-26.0,,,,j,702,dark,blicket_images/ds.jpg,,126467,,blicket,36,image-keyboard-response,,
360,color_on,,,,,,,,,,,,,,blicket_images/ds.jpg,,0.0-27.0,,,, ,310,dark,blicket_images/ds_on.jpg,,126778,,feedback,37,image-keyboard-response,,
360,color_on,True,1,,,,f,off,,,,,,,,,0.0-28.0,,,,f,949,dark,blicket_images/ls.jpg,,127730,,blicket,38,image-keyboard-response,,
360,color_on,,,,,,,,,,,,,,blicket_images/ls.jpg,,0.0-29.0,,,, ,295,dark,blicket_images/ls_off.jpg,,128027,,feedback,39,image-keyboard-response,,
360,color_on,True,1,,,,j,on,,,,,,,,,0.0-30.0,,,,j,1110,dark,blicket_images/ds.jpg,,129139,,blicket,40,image-keyboard-response,,
360,color_on,,,,,,,,,,,,,,blicket_images/ds.jpg,,0.0-31.0,,,, ,357,dark,blicket_images/ds_on.jpg,,129499,,feedback,41,image-keyboard-response,,
360,color_on,True,1,,,,f,off,,,,,,,,,0.0-32.0,,,,f,910,dark,blicket_images/ls.jpg,,130411,,blicket,42,image-keyboard-response,,
360,color_on,,,,,,,,,,,,,,blicket_images/ls.jpg,,0.0-33.0,,,, ,301,dark,blicket_images/ls_off.jpg,,130714,,feedback,43,image-keyboard-response,,
360,color_on,True,1,,,,j,on,,,,,,,,,0.0-34.0,,,,j,2315,dark,blicket_images/dc.jpg,,133036,,blicket,44,image-keyboard-response,,
360,color_on,,,,,,,,,,,,,,blicket_images/dc.jpg,,0.0-35.0,,,, ,404,dark,blicket_images/dc_on.jpg,,133443,,feedback,45,image-keyboard-response,,
360,color_on,True,1,,,,j,on,,,,,,,,,0.0-36.0,,,,j,1245,dark,blicket_images/ds.jpg,,134690,,blicket,46,image-keyboard-response,,
360,color_on,,,,,,,,,,,,,,blicket_images/ds.jpg,,0.0-37.0,,,, ,399,dark,blicket_images/ds_on.jpg,,135091,,feedback,47,image-keyboard-response,,
360,color_on,False,0,,,blicket_images/ds.jpg,,ds,,,,,,,,blicket_images/dc.jpg,0.0-38.0,,,,dc,31515,dark,"Which of these options shows the image from the last trial, that you just saw?",,166610,,pop_quiz,48,html-button-response,,
360,color_on,True,1,,,,,"['dc', 'ds']",,,,,,,,,0.0-39.0,,[0],,"['dc', 'ds']",3996,dark,,,170610,,rule_question,49,survey-multi-select,,
360,color_on,,,,,,,,,,,,,,,,0.0-40.0,,,,0,4574,dark,"<p>Thank you for participating!</p>You answered 15 out of 16 trials correctly, and will recieve a $0.75 bonus.<p>Now you will complete a short survey before finishing the experiment.</p>",,175186,,,50,html-button-response,,
360,color_on,,,33,0.75,,,,Non-Hispanic,,,,I just noticed which color worked,Female,,,0.0-41.0,0.9375,,,"{'age': '33', 'gender': 'Female', 'feedback': 'I just noticed which color worked', 'ethnicity': 'Non-Hispanic', 'other_race': '', 'other_gender': ''}",25191,dark,,,200378,,exit_survey,51,survey-html-form,,
424,color_on,,,,,,,,,[],[],[],,,,,0.0-0.0,,,,,,dark,,True,78,False,,0,preload,,
424,color_on,,,,,,,,,[],[],[],,,,,0.0-1.0,,,,,,dark,,True,140,False,,1,preload,,
424,color_on,,,,,,,,,,,,,,,,0.0-2.0,,,,,,dark,,True,2543,,,2,fullscreen,,
424,color_on,,,,,,,,,,,,,,,,0.0-3.0,,,,0,1952,dark,"<p><b>Consent Form</b></p> <div style=""text-align:left;background-color:lightblue; padding:20px; max-width:900px;""><p><b>Description:</b> Welcome! You are invited to participate in a research study in cognitive psychology. You will be asked to perform various tasks on a computer which may include: looking at images or videos, listening to sounds, reading scenarios, or playing games. You may be asked a number of different questions about making judgments and intepreting people's actions. All information collected will remain confidential. </p> <p> <b>Risks and benefits:</b> Risks involved in this study are the same as those normally associated with using a computer (e.g., mild eye/arm strain). If you have any pre- existing conditions that might make reading and completing a computer-based survey strenuous for you, you should probably elect to not participate in this study. If at any time during the study you feel unable to participate because you are experiencing strain, you may end your participation without penalty. We cannot and do not guarantee or promise that you will receive any benefits from this study. Your decision whether or not to participate in this study will not affect your employment, medical care, and/or grades in school. </p><p><b>Time involvement:</b> Your participation in this experiment will take  5 minutes. </p><p><b> Payment:</b> If recruitment materials indicate payment (e.g., Prolific or other recruitment), you will receive compensation as indicated. </p><p><b>Subject's rights:</b> If you have read this notice and have decided to participate in this project, please understand your participation is voluntary and you have the right to withdraw your consent or discontinue participation at any time without penalty or loss of benefits to which you are otherwise entitled. You have the right to refuse to answer particular questions. Your individual privacy will be maintained in all published and written data resulting from the study. </p><p><b>Contact information:</b> If you have any questions, concerns or complaints about this research study, its procedures, or risks and benefits, you should ask the Protocol Director, (Professor Tobias Gerstenberg, Phone: (650) 725-2431; Email: gerstenberg@stanford.edu). </p><p><b>Independent contact:</b> If you are not satisfied with how this study is being conducted, or if you have any concerns, complaints, or general questions about the research or your rights as a participant, please contact the Stanford Institutional Review Board (IRB) to speak to someone independent of the research team via email at irb2-manager@lists.stanford.edu, or via phone at (650) 723-2480 or toll free at 1-866-680-2906. You can also write to the Stanford IRB, Stanford University, 3000 El Camino Real, Five Palo Alto Square, 4th Floor, Palo Alto, CA 94306. </p><p>You may want to print a copy of this consent form to keep. By clicking the button below, you acknowledge that you have read the above information, that you are 18 years of age, or older and give your consent to participate in our internet-based study and consent for us to analyze the resulting data. </p> </div><p> Do you agree with the terms of the experiment as explained above? </p>",,4499,,,3,html-button-response,,
424,color_on,,,,,,,,,,,,,,,,0.0-4.0-0.0,,,,,6350,dark,,,10849,,instructions_pt1,4,instructions,"[{'page_index': 0, 'viewing_time': 1480}, {'page_index': 1, 'viewing_time': 1280}, {'page_index': 2, 'viewing_time': 921}, {'page_index': 3, 'viewing_time': 1307}, {'page_index': 4, 'viewing_time': 1362}]",
424,color_on,True,,,,,,j,,,,,,,,,0.0-4.0-1.0-0.0,,,,j,5056,dark,blicket_images/red_pyramid.jpg,,15911,,comprehension_quiz,5,image-keyboard-response,,
424,color_on,True,,,,,, ,,,,,,,,,0.0-4.0-1.0-1.0,,,, ,1790,dark,blicket_images/red_pyramid_on.jpg,,17702,,comprehension_quiz,6,image-keyboard-response,,
424,color_on,True,,,,,,f,,,,,,,,,0.0-4.0-1.0-2.0,,,,f,2743,dark,blicket_images/purple_prism.jpg,,20446,,comprehension_quiz,7,image-keyboard-response,,
424,color_on,True,,,,,, ,,,,,,,,,0.0-4.0-1.0-3.0,,,, ,1752,dark,blicket_images/purple_prism_off.jpg,,22199,,comprehension_quiz,8,image-keyboard-response,,
424,color_on,,,,,,,,,,,,,,,,0.0-5.0,,,,,18856,dark,,,41055,,,9,instructions,"[{'page_index': 0, 'viewing_time': 2510}, {'page_index': 1, 'viewing_time': 1005}, {'page_index': 2, 'viewing_time': 485}, {'page_index': 3, 'viewing_time': 507}, {'page_index': 4, 'viewing_time': 405}, {'page_index': 5, 'viewing_time': 4453}, {'page_index': 6, 'viewing_time': 3667}, {'page_index': 7, 'viewing_time': 4965}, {'page_index': 8, 'viewing_time': 858}]",
424,color_on,True,1,,,,j,on,,,,,,,,,0.0-6.0,,,,j,1873,dark,blicket_images/ds.jpg,,42929,,blicket,10,image-keyboard-response,,
424,color_on,,,,,,,,,,,,,,blicket_images/ds.jpg,,0.0-7.0,,,, ,1178,dark,blicket_images/ds_on.jpg,,44110,,feedback,11,image-keyboard-response,,
424,color_on,True,1,,,,f,off,,,,,,,,,0.0-8.0,,,,f,1048,dark,blicket_images/lc.jpg,,45159,,blicket,12,image-keyboard-response,,
424,color_on,,,,,,,,,,,,,,blicket_images/lc.jpg,,0.0-9.0,,,, ,854,dark,blicket_images/lc_off.jpg,,46014,,feedback,13,image-keyboard-response,,
424,color_on,False,0,,,,f,off,,,,,,,,,0.0-10.0,,,,j,1031,dark,blicket_images/ls.jpg,,47046,,blicket,14,image-keyboard-response,,
424,color_on,,,,,,,,,,,,,,blicket_images/ls.jpg,,0.0-11.0,,,, ,1079,dark,blicket_images/ls_off.jpg,,48127,,feedback,15,image-keyboard-response,,
424,color_on,True,1,,,,j,on,,,,,,,,,0.0-12.0,,,,j,911,dark,blicket_images/ds.jpg,,49038,,blicket,16,image-keyboard-response,,
424,color_on,,,,,,,,,,,,,,blicket_images/ds.jpg,,0.0-13.0,,,, ,607,dark,blicket_images/ds_on.jpg,,49646,,feedback,17,image-keyboard-response,,
424,color_on,True,1,,,,j,on,,,,,,,,,0.0-14.0,,,,j,783,dark,blicket_images/dc.jpg,,50430,,blicket,18,image-keyboard-response,,
424,color_on,,,,,,,,,,,,,,blicket_images/dc.jpg,,0.0-15.0,,,, ,656,dark,blicket_images/dc_on.jpg,,51087,,feedback,19,image-keyboard-response,,
424,color_on,True,1,,,,f,off,,,,,,,,,0.0-16.0,,,,f,1423,dark,blicket_images/lc.jpg,,52510,,blicket,20,image-keyboard-response,,
424,color_on,,,,,,,,,,,,,,blicket_images/lc.jpg,,0.0-17.0,,,, ,903,dark,blicket_images/lc_off.jpg,,53414,,feedback,21,image-keyboard-response,,
424,color_on,True,1,,,,j,on,,,,,,,,,0.0-18.0,,,,j,647,dark,blicket_images/ds.jpg,,54062,,blicket,22,image-keyboard-response,,
424,color_on,,,,,,,,,,,,,,blicket_images/ds.jpg,,0.0-19.0,,,, ,434,dark,blicket_images/ds_on.jpg,,54497,,feedback,23,image-keyboard-response,,
424,color_on,True,1,,,,f,off,,,,,,,,,0.0-20.0,,,,f,710,dark,blicket_images/ls.jpg,,55214,,blicket,24,image-keyboard-response,,
424,color_on,,,,,,,,,,,,,,blicket_images/ls.jpg,,0.0-21.0,,,, ,649,dark,blicket_images/ls_off.jpg,,55864,,feedback,25,image-keyboard-response,,
424,color_on,True,1,,,,j,on,,,,,,,,,0.0-22.0,,,,j,676,dark,blicket_images/dc.jpg,,56542,,blicket,26,image-keyboard-response,,
424,color_on,,,,,,,,,,,,,,blicket_images/dc.jpg,,0.0-23.0,,,, ,455,dark,blicket_images/dc_on.jpg,,56998,,feedback,27,image-keyboard-response,,
424,color_on,True,1,,,,f,off,,,,,,,,,0.0-24.0,,,,f,1071,dark,blicket_images/lc.jpg,,58070,,blicket,28,image-keyboard-response,,
424,color_on,,,,,,,,,,,,,,blicket_images/lc.jpg,,0.0-25.0,,,, ,383,dark,blicket_images/lc_off.jpg,,58454,,feedback,29,image-keyboard-response,,
424,color_on,True,1,,,,f,off,,,,,,,,,0.0-26.0,,,,f,656,dark,blicket_images/ls.jpg,,59111,,blicket,30,image-keyboard-response,,
424,color_on,,,,,,,,,,,,,,blicket_images/ls.jpg,,0.0-27.0,,,, ,399,dark,blicket_images/ls_off.jpg,,59510,,feedback,31,image-keyboard-response,,
424,color_on,True,1,,,,f,off,,,,,,,,,0.0-28.0,,,,f,640,dark,blicket_images/lc.jpg,,60151,,blicket,32,image-keyboard-response,,
424,color_on,,,,,,,,,,,,,,blicket_images/lc.jpg,,0.0-29.0,,,, ,295,dark,blicket_images/lc_off.jpg,,60447,,feedback,33,image-keyboard-response,,
424,color_on,True,1,,,,j,on,,,,,,,,,0.0-30.0,,,,j,671,dark,blicket_images/dc.jpg,,61118,,blicket,34,image-keyboard-response,,
424,color_on,,,,,,,,,,,,,,blicket_images/dc.jpg,,0.0-31.0,,,, ,359,dark,blicket_images/dc_on.jpg,,61480,,feedback,35,image-keyboard-response,,
424,color_on,True,1,,,,f,off,,,,,,,,,0.0-32.0,,,,f,560,dark,blicket_images/ls.jpg,,62041,,blicket,36,image-keyboard-response,,
424,color_on,,,,,,,,,,,,,,blicket_images/ls.jpg,,0.0-33.0,,,, ,333,dark,blicket_images/ls_off.jpg,,62375,,feedback,37,image-keyboard-response,,
424,color_on,True,1,,,,f,off,,,,,,,,,0.0-34.0,,,,f,631,dark,blicket_images/lc.jpg,,63006,,blicket,38,image-keyboard-response,,
424,color_on,,,,,,,,,,,,,,blicket_images/lc.jpg,,0.0-35.0,,,, ,479,dark,blicket_images/lc_off.jpg,,63486,,feedback,39,image-keyboard-response,,
424,color_on,True,1,,,,j,on,,,,,,,,,0.0-36.0,,,,j,576,dark,blicket_images/ds.jpg,,64063,,blicket,40,image-keyboard-response,,
424,color_on,,,,,,,,,,,,,,blicket_images/ds.jpg,,0.0-37.0,,,, ,391,dark,blicket_images/ds_on.jpg,,64454,,feedback,41,image-keyboard-response,,
424,color_on,False,0,,,blicket_images/ds.jpg,,ds,,,,,,,,blicket_images/dc.jpg,0.0-38.0,,,,dc,6692,dark,"Which of these options shows the image from the last trial, that you just saw?",,71147,,pop_quiz,42,html-button-response,,
424,color_on,True,1,,,,,"['dc', 'ds']",,,,,,,,,0.0-39.0,,[0],,"['dc', 'ds']",3945,dark,,,75096,,rule_question,43,survey-multi-select,,
424,color_on,,,,,,,,,,,,,,,,0.0-40.0,,,,0,2693,dark,"<p>Thank you for participating!</p>You answered 15 out of 16 trials correctly, and will recieve a $0.75 bonus.<p>Now you will complete a short survey before finishing the experiment.</p>",,77791,,,44,html-button-response,,
424,color_on,,,34,0.75,,,,Non-Hispanic,,,,not sure how to answer. it became clear the black ones were the thing,Male,,,0.0-41.0,0.9375,,White,"{'age': '34', 'race': 'White', 'gender': 'Male', 'feedback': 'not sure how to answer. it became clear the black ones were the thing', 'ethnicity': 'Non-Hispanic', 'other_race': '', 'other_gender': ''}",24187,dark,,,101979,,exit_survey,45,survey-html-form,,
412,color_on,,,,,,,,,[],[],[],,,,,0.0-0.0,,,,,,light,,True,311,False,,0,preload,,
412,color_on,,,,,,,,,[],[],[],,,,,0.0-1.0,,,,,,light,,True,515,False,,1,preload,,
412,color_on,,,,,,,,,,,,,,,,0.0-2.0,,,,,,light,,True,25771,,,2,fullscreen,,
412,color_on,,,,,,,,,,,,,,,,0.0-3.0,,,,0,3435,light,"<p><b>Consent Form</b></p> <div style=""text-align:left;background-color:lightblue; padding:20px; max-width:900px;""><p><b>Description:</b> Welcome! You are invited to participate in a research study in cognitive psychology. You will be asked to perform various tasks on a computer which may include: looking at images or videos, listening to sounds, reading scenarios, or playing games. You may be asked a number of different questions about making judgments and intepreting people's actions. All information collected will remain confidential. </p> <p> <b>Risks and benefits:</b> Risks involved in this study are the same as those normally associated with using a computer (e.g., mild eye/arm strain). If you have any pre- existing conditions that might make reading and completing a computer-based survey strenuous for you, you should probably elect to not participate in this study. If at any time during the study you feel unable to participate because you are experiencing strain, you may end your participation without penalty. We cannot and do not guarantee or promise that you will receive any benefits from this study. Your decision whether or not to participate in this study will not affect your employment, medical care, and/or grades in school. </p><p><b>Time involvement:</b> Your participation in this experiment will take  5 minutes. </p><p><b> Payment:</b> If recruitment materials indicate payment (e.g., Prolific or other recruitment), you will receive compensation as indicated. </p><p><b>Subject's rights:</b> If you have read this notice and have decided to participate in this project, please understand your participation is voluntary and you have the right to withdraw your consent or discontinue participation at any time without penalty or loss of benefits to which you are otherwise entitled. You have the right to refuse to answer particular questions. Your individual privacy will be maintained in all published and written data resulting from the study. </p><p><b>Contact information:</b> If you have any questions, concerns or complaints about this research study, its procedures, or risks and benefits, you should ask the Protocol Director, (Professor Tobias Gerstenberg, Phone: (650) 725-2431; Email: gerstenberg@stanford.edu). </p><p><b>Independent contact:</b> If you are not satisfied with how this study is being conducted, or if you have any concerns, complaints, or general questions about the research or your rights as a participant, please contact the Stanford Institutional Review Board (IRB) to speak to someone independent of the research team via email at irb2-manager@lists.stanford.edu, or via phone at (650) 723-2480 or toll free at 1-866-680-2906. You can also write to the Stanford IRB, Stanford University, 3000 El Camino Real, Five Palo Alto Square, 4th Floor, Palo Alto, CA 94306. </p><p>You may want to print a copy of this consent form to keep. By clicking the button below, you acknowledge that you have read the above information, that you are 18 years of age, or older and give your consent to participate in our internet-based study and consent for us to analyze the resulting data. </p> </div><p> Do you agree with the terms of the experiment as explained above? </p>",,29206,,,3,html-button-response,,
412,color_on,,,,,,,,,,,,,,,,0.0-4.0-0.0,,,,,29742,light,,,58951,,instructions_pt1,4,instructions,"[{'page_index': 0, 'viewing_time': 2549}, {'page_index': 1, 'viewing_time': 3752}, {'page_index': 2, 'viewing_time': 3832}, {'page_index': 3, 'viewing_time': 6297}, {'page_index': 4, 'viewing_time': 13312}]",
412,color_on,True,,,,,,j,,,,,,,,,0.0-4.0-1.0-0.0,,,,j,12300,light,blicket_images/red_pyramid.jpg,,71256,,comprehension_quiz,5,image-keyboard-response,,
412,color_on,True,,,,,, ,,,,,,,,,0.0-4.0-1.0-1.0,,,, ,2053,light,blicket_images/red_pyramid_on.jpg,,73320,,comprehension_quiz,6,image-keyboard-response,,
412,color_on,True,,,,,,f,,,,,,,,,0.0-4.0-1.0-2.0,,,,f,5324,light,blicket_images/purple_prism.jpg,,78656,,comprehension_quiz,7,image-keyboard-response,,
412,color_on,True,,,,,, ,,,,,,,,,0.0-4.0-1.0-3.0,,,, ,961,light,blicket_images/purple_prism_off.jpg,,79624,,comprehension_quiz,8,image-keyboard-response,,
412,color_on,,,,,,,,,,,,,,,,0.0-5.0,,,,,36621,light,,,116247,,,9,instructions,"[{'page_index': 0, 'viewing_time': 4309}, {'page_index': 1, 'viewing_time': 2223}, {'page_index': 2, 'viewing_time': 1113}, {'page_index': 3, 'viewing_time': 2343}, {'page_index': 4, 'viewing_time': 856}, {'page_index': 5, 'viewing_time': 10369}, {'page_index': 6, 'viewing_time': 8592}, {'page_index': 7, 'viewing_time': 5792}, {'page_index': 8, 'viewing_time': 1024}]",
412,color_on,True,1,,,,j,on,,,,,,,,,0.0-6.0,,,,j,5158,light,blicket_images/ls.jpg,,121409,,blicket,10,image-keyboard-response,,
412,color_on,,,,,,,,,,,,,,blicket_images/ls.jpg,,0.0-7.0,,,, ,4297,light,blicket_images/ls_on.jpg,,125712,,feedback,11,image-keyboard-response,,
412,color_on,True,1,,,,f,off,,,,,,,,,0.0-8.0,,,,f,7120,light,blicket_images/dc.jpg,,132840,,blicket,12,image-keyboard-response,,
412,color_on,,,,,,,,,,,,,,blicket_images/dc.jpg,,0.0-9.0,,,, ,1542,light,blicket_images/dc_off.jpg,,134392,,feedback,13,image-keyboard-response,,
412,color_on,True,1,,,,j,on,,,,,,,,,0.0-10.0,,,,j,5582,light,blicket_images/lc.jpg,,139982,,blicket,14,image-keyboard-response,,
412,color_on,,,,,,,,,,,,,,blicket_images/lc.jpg,,0.0-11.0,,,, ,1157,light,blicket_images/lc_on.jpg,,141143,,feedback,15,image-keyboard-response,,
412,color_on,True,1,,,,f,off,,,,,,,,,0.0-12.0,,,,f,1966,light,blicket_images/ds.jpg,,143120,,blicket,16,image-keyboard-response,,
412,color_on,,,,,,,,,,,,,,blicket_images/ds.jpg,,0.0-13.0,,,, ,885,light,blicket_images/ds_off.jpg,,144015,,feedback,17,image-keyboard-response,,
412,color_on,True,1,,,,j,on,,,,,,,,,0.0-14.0,,,,j,1718,light,blicket_images/ls.jpg,,145735,,blicket,18,image-keyboard-response,,
412,color_on,,,,,,,,,,,,,,blicket_images/ls.jpg,,0.0-15.0,,,, ,782,light,blicket_images/ls_on.jpg,,146520,,feedback,19,image-keyboard-response,,
412,color_on,True,1,,,,j,on,,,,,,,,,0.0-16.0,,,,j,1606,light,blicket_images/lc.jpg,,148127,,blicket,20,image-keyboard-response,,
412,color_on,,,,,,,,,,,,,,blicket_images/lc.jpg,,0.0-17.0,,,, ,623,light,blicket_images/lc_on.jpg,,148751,,feedback,21,image-keyboard-response,,
412,color_on,True,1,,,,f,off,,,,,,,,,0.0-18.0,,,,f,1166,light,blicket_images/ds.jpg,,149918,,blicket,22,image-keyboard-response,,
412,color_on,,,,,,,,,,,,,,blicket_images/ds.jpg,,0.0-19.0,,,, ,680,light,blicket_images/ds_off.jpg,,150599,,feedback,23,image-keyboard-response,,
412,color_on,True,1,,,,f,off,,,,,,,,,0.0-20.0,,,,f,1342,light,blicket_images/dc.jpg,,151943,,blicket,24,image-keyboard-response,,
412,color_on,,,,,,,,,,,,,,blicket_images/dc.jpg,,0.0-21.0,,,, ,557,light,blicket_images/dc_off.jpg,,152503,,feedback,25,image-keyboard-response,,
412,color_on,True,1,,,,f,off,,,,,,,,,0.0-22.0,,,,f,1430,light,blicket_images/ds.jpg,,153935,,blicket,26,image-keyboard-response,,
412,color_on,,,,,,,,,,,,,,blicket_images/ds.jpg,,0.0-23.0,,,, ,558,light,blicket_images/ds_off.jpg,,154495,,feedback,27,image-keyboard-response,,
412,color_on,True,1,,,,f,off,,,,,,,,,0.0-24.0,,,,f,1288,light,blicket_images/dc.jpg,,155784,,blicket,28,image-keyboard-response,,
412,color_on,,,,,,,,,,,,,,blicket_images/dc.jpg,,0.0-25.0,,,, ,399,light,blicket_images/dc_off.jpg,,156184,,feedback,29,image-keyboard-response,,
412,color_on,True,1,,,,j,on,,,,,,,,,0.0-26.0,,,,j,1150,light,blicket_images/lc.jpg,,157335,,blicket,30,image-keyboard-response,,
412,color_on,,,,,,,,,,,,,,blicket_images/lc.jpg,,0.0-27.0,,,, ,375,light,blicket_images/lc_on.jpg,,157712,,feedback,31,image-keyboard-response,,
412,color_on,True,1,,,,f,off,,,,,,,,,0.0-28.0,,,,f,1279,light,blicket_images/dc.jpg,,158991,,blicket,32,image-keyboard-response,,
412,color_on,,,,,,,,,,,,,,blicket_images/dc.jpg,,0.0-29.0,,,, ,391,light,blicket_images/dc_off.jpg,,159384,,feedback,33,image-keyboard-response,,
412,color_on,True,1,,,,j,on,,,,,,,,,0.0-30.0,,,,j,1375,light,blicket_images/lc.jpg,,160761,,blicket,34,image-keyboard-response,,
412,color_on,,,,,,,,,,,,,,blicket_images/lc.jpg,,0.0-31.0,,,, ,315,light,blicket_images/lc_on.jpg,,161078,,feedback,35,image-keyboard-response,,
412,color_on,True,1,,,,j,on,,,,,,,,,0.0-32.0,,,,j,1359,light,blicket_images/ls.jpg,,162440,,blicket,36,image-keyboard-response,,
412,color_on,,,,,,,,,,,,,,blicket_images/ls.jpg,,0.0-33.0,,,, ,277,light,blicket_images/ls_on.jpg,,162720,,feedback,37,image-keyboard-response,,
412,color_on,True,1,,,,f,off,,,,,,,,,0.0-34.0,,,,f,2175,light,blicket_images/ds.jpg,,164898,,blicket,38,image-keyboard-response,,
412,color_on,,,,,,,,,,,,,,blicket_images/ds.jpg,,0.0-35.0,,,, ,490,light,blicket_images/ds_off.jpg,,165392,,feedback,39,image-keyboard-response,,
412,color_on,True,1,,,,j,on,,,,,,,,,0.0-36.0,,,,j,1325,light,blicket_images/lc.jpg,,166720,,blicket,40,image-keyboard-response,,
412,color_on,,,,,,,,,,,,,,blicket_images/lc.jpg,,0.0-37.0,,,, ,262,light,blicket_images/lc_on.jpg,,166985,,feedback,41,image-keyboard-response,,
412,color_on,False,0,,,blicket_images/lc.jpg,,lc,,,,,,,,blicket_images/ls.jpg,0.0-38.0,,,,ls,20547,light,"Which of these options shows the image from the last trial, that you just saw?",,187534,,pop_quiz,42,html-button-response,,
412,color_on,True,1,,,,,"['lc', 'ls']",,,,,,,,,0.0-39.0,,[0],,"['lc', 'ls']",5047,light,,,192585,,rule_question,43,survey-multi-select,,
412,color_on,,,,,,,,,,,,,,,,0.0-40.0,,,,0,4212,light,"<p>Thank you for participating!</p>You answered 16 out of 16 trials correctly, and will recieve a $0.80 bonus.<p>Now you will complete a short survey before finishing the experiment.</p>",,196799,,,44,html-button-response,,
412,color_on,,,29,0.8,,,,Hispanic,,,,"I was initially just putting yes to see if it was correct. When I saw the two gray ones had both been correct with yes, I figured the black one could possibly be no. Once my theory proved true, I connected yes and no with the colors of the blocks.",Female,,,0.0-41.0,1,,White,"{'age': '29', 'race': 'White', 'gender': 'Female', 'feedback': 'I was initially just putting yes to see if it was correct. When I saw the two gray ones had both been correct with yes, I figured the black one could possibly be no. Once my theory proved true, I connected yes and no with the colors of the blocks.', 'ethnicity': 'Hispanic', 'other_race': '', 'other_gender': ''}",99734,light,,,296537,,exit_survey,45,survey-html-form,,
368,color_on,,,,,,,,,[],[],[],,,,,0.0-0.0,,,,,,dark,,True,258,False,,0,preload,,
368,color_on,,,,,,,,,[],[],[],,,,,0.0-1.0,,,,,,dark,,True,423,False,,1,preload,,
368,color_on,,,,,,,,,,,,,,,,0.0-2.0,,,,,,dark,,True,8379,,,2,fullscreen,,
368,color_on,,,,,,,,,,,,,,,,0.0-3.0,,,,0,2594,dark,"<p><b>Consent Form</b></p> <div style=""text-align:left;background-color:lightblue; padding:20px; max-width:900px;""><p><b>Description:</b> Welcome! You are invited to participate in a research study in cognitive psychology. You will be asked to perform various tasks on a computer which may include: looking at images or videos, listening to sounds, reading scenarios, or playing games. You may be asked a number of different questions about making judgments and intepreting people's actions. All information collected will remain confidential. </p> <p> <b>Risks and benefits:</b> Risks involved in this study are the same as those normally associated with using a computer (e.g., mild eye/arm strain). If you have any pre- existing conditions that might make reading and completing a computer-based survey strenuous for you, you should probably elect to not participate in this study. If at any time during the study you feel unable to participate because you are experiencing strain, you may end your participation without penalty. We cannot and do not guarantee or promise that you will receive any benefits from this study. Your decision whether or not to participate in this study will not affect your employment, medical care, and/or grades in school. </p><p><b>Time involvement:</b> Your participation in this experiment will take  5 minutes. </p><p><b> Payment:</b> If recruitment materials indicate payment (e.g., Prolific or other recruitment), you will receive compensation as indicated. </p><p><b>Subject's rights:</b> If you have read this notice and have decided to participate in this project, please understand your participation is voluntary and you have the right to withdraw your consent or discontinue participation at any time without penalty or loss of benefits to which you are otherwise entitled. You have the right to refuse to answer particular questions. Your individual privacy will be maintained in all published and written data resulting from the study. </p><p><b>Contact information:</b> If you have any questions, concerns or complaints about this research study, its procedures, or risks and benefits, you should ask the Protocol Director, (Professor Tobias Gerstenberg, Phone: (650) 725-2431; Email: gerstenberg@stanford.edu). </p><p><b>Independent contact:</b> If you are not satisfied with how this study is being conducted, or if you have any concerns, complaints, or general questions about the research or your rights as a participant, please contact the Stanford Institutional Review Board (IRB) to speak to someone independent of the research team via email at irb2-manager@lists.stanford.edu, or via phone at (650) 723-2480 or toll free at 1-866-680-2906. You can also write to the Stanford IRB, Stanford University, 3000 El Camino Real, Five Palo Alto Square, 4th Floor, Palo Alto, CA 94306. </p><p>You may want to print a copy of this consent form to keep. By clicking the button below, you acknowledge that you have read the above information, that you are 18 years of age, or older and give your consent to participate in our internet-based study and consent for us to analyze the resulting data. </p> </div><p> Do you agree with the terms of the experiment as explained above? </p>",,10974,,,3,html-button-response,,
368,color_on,,,,,,,,,,,,,,,,0.0-4.0-0.0,,,,,9939,dark,,,20914,,instructions_pt1,4,instructions,"[{'page_index': 0, 'viewing_time': 1557}, {'page_index': 1, 'viewing_time': 2170}, {'page_index': 2, 'viewing_time': 2024}, {'page_index': 3, 'viewing_time': 1542}, {'page_index': 4, 'viewing_time': 2644}]",
368,color_on,True,,,,,,j,,,,,,,,,0.0-4.0-1.0-0.0,,,,j,6975,dark,blicket_images/red_pyramid.jpg,,27897,,comprehension_quiz,5,image-keyboard-response,,
368,color_on,True,,,,,, ,,,,,,,,,0.0-4.0-1.0-1.0,,,, ,1838,dark,blicket_images/red_pyramid_on.jpg,,29736,,comprehension_quiz,6,image-keyboard-response,,
368,color_on,False,,,,,,f,,,,,,,,,0.0-4.0-1.0-2.0,,,,j,1631,dark,blicket_images/purple_prism.jpg,,31368,,comprehension_quiz,7,image-keyboard-response,,
368,color_on,True,,,,,, ,,,,,,,,,0.0-4.0-1.0-3.0,,,, ,1111,dark,blicket_images/purple_prism_off.jpg,,32480,,comprehension_quiz,8,image-keyboard-response,,
368,color_on,False,,,,,,,,,,,,,,,0.0-4.0-2.0-0.0,,,,0,3081,dark,<p> Oops! You have answered one or more questions incorrectly.</p><p> Please Review the instructions again before continuing with the experiment </p>,,35562,,fail_message,9,html-button-response,,
368,color_on,,,,,,,,,,,,,,,,0.0-4.1-0.1,,,,,4684,dark,,,40247,,instructions_pt1,10,instructions,"[{'page_index': 0, 'viewing_time': 1489}, {'page_index': 1, 'viewing_time': 1208}, {'page_index': 2, 'viewing_time': 482}, {'page_index': 3, 'viewing_time': 140}, {'page_index': 4, 'viewing_time': 1364}]",
368,color_on,True,,,,,,j,,,,,,,,,0.0-4.1-1.1-0.1,,,,j,3336,dark,blicket_images/red_pyramid.jpg,,43585,,comprehension_quiz,11,image-keyboard-response,,
368,color_on,True,,,,,, ,,,,,,,,,0.0-4.1-1.1-1.1,,,, ,1806,dark,blicket_images/red_pyramid_on.jpg,,45393,,comprehension_quiz,12,image-keyboard-response,,
368,color_on,True,,,,,,f,,,,,,,,,0.0-4.1-1.1-2.1,,,,f,4807,dark,blicket_images/purple_prism.jpg,,50201,,comprehension_quiz,13,image-keyboard-response,,
368,color_on,True,,,,,, ,,,,,,,,,0.0-4.1-1.1-3.1,,,, ,918,dark,blicket_images/purple_prism_off.jpg,,51120,,comprehension_quiz,14,image-keyboard-response,,
368,color_on,,,,,,,,,,,,,,,,0.0-5.0,,,,,27482,dark,,,78602,,,15,instructions,"[{'page_index': 0, 'viewing_time': 2192}, {'page_index': 1, 'viewing_time': 1086}, {'page_index': 2, 'viewing_time': 558}, {'page_index': 3, 'viewing_time': 790}, {'page_index': 4, 'viewing_time': 552}, {'page_index': 5, 'viewing_time': 8202}, {'page_index': 6, 'viewing_time': 8032}, {'page_index': 7, 'viewing_time': 5210}, {'page_index': 8, 'viewing_time': 860}]",
368,color_on,True,1,,,,j,on,,,,,,,,,0.0-6.0,,,,j,2164,dark,blicket_images/dc.jpg,,80767,,blicket,16,image-keyboard-response,,
368,color_on,,,,,,,,,,,,,,blicket_images/dc.jpg,,0.0-7.0,,,, ,1110,dark,blicket_images/dc_on.jpg,,81879,,feedback,17,image-keyboard-response,,
368,color_on,False,0,,,,f,off,,,,,,,,,0.0-8.0,,,,j,2167,dark,blicket_images/lc.jpg,,84048,,blicket,18,image-keyboard-response,,
368,color_on,,,,,,,,,,,,,,blicket_images/lc.jpg,,0.0-9.0,,,, ,1311,dark,blicket_images/lc_off.jpg,,85360,,feedback,19,image-keyboard-response,,
368,color_on,True,1,,,,f,off,,,,,,,,,0.0-10.0,,,,f,3895,dark,blicket_images/ls.jpg,,89256,,blicket,20,image-keyboard-response,,
368,color_on,,,,,,,,,,,,,,blicket_images/ls.jpg,,0.0-11.0,,,, ,2149,dark,blicket_images/ls_off.jpg,,91407,,feedback,21,image-keyboard-response,,
368,color_on,True,1,,,,j,on,,,,,,,,,0.0-12.0,,,,j,823,dark,blicket_images/dc.jpg,,92231,,blicket,22,image-keyboard-response,,
368,color_on,,,,,,,,,,,,,,blicket_images/dc.jpg,,0.0-13.0,,,, ,687,dark,blicket_images/dc_on.jpg,,92919,,feedback,23,image-keyboard-response,,
368,color_on,True,1,,,,j,on,,,,,,,,,0.0-14.0,,,,j,607,dark,blicket_images/ds.jpg,,93528,,blicket,24,image-keyboard-response,,
368,color_on,,,,,,,,,,,,,,blicket_images/ds.jpg,,0.0-15.0,,,, ,495,dark,blicket_images/ds_on.jpg,,94023,,feedback,25,image-keyboard-response,,
368,color_on,True,1,,,,f,off,,,,,,,,,0.0-16.0,,,,f,639,dark,blicket_images/ls.jpg,,94664,,blicket,26,image-keyboard-response,,
368,color_on,,,,,,,,,,,,,,blicket_images/ls.jpg,,0.0-17.0,,,, ,486,dark,blicket_images/ls_off.jpg,,95152,,feedback,27,image-keyboard-response,,
368,color_on,True,1,,,,j,on,,,,,,,,,0.0-18.0,,,,j,583,dark,blicket_images/ds.jpg,,95736,,blicket,28,image-keyboard-response,,
368,color_on,,,,,,,,,,,,,,blicket_images/ds.jpg,,0.0-19.0,,,, ,407,dark,blicket_images/ds_on.jpg,,96144,,feedback,29,image-keyboard-response,,
368,color_on,True,1,,,,j,on,,,,,,,,,0.0-20.0,,,,j,591,dark,blicket_images/dc.jpg,,96736,,blicket,30,image-keyboard-response,,
368,color_on,,,,,,,,,,,,,,blicket_images/dc.jpg,,0.0-21.0,,,, ,423,dark,blicket_images/dc_on.jpg,,97160,,feedback,31,image-keyboard-response,,
368,color_on,True,1,,,,f,off,,,,,,,,,0.0-22.0,,,,f,711,dark,blicket_images/ls.jpg,,97872,,blicket,32,image-keyboard-response,,
368,color_on,,,,,,,,,,,,,,blicket_images/ls.jpg,,0.0-23.0,,,, ,454,dark,blicket_images/ls_off.jpg,,98327,,feedback,33,image-keyboard-response,,
368,color_on,True,1,,,,j,on,,,,,,,,,0.0-24.0,,,,j,528,dark,blicket_images/ds.jpg,,98856,,blicket,34,image-keyboard-response,,
368,color_on,,,,,,,,,,,,,,blicket_images/ds.jpg,,0.0-25.0,,,, ,367,dark,blicket_images/ds_on.jpg,,99224,,feedback,35,image-keyboard-response,,
368,color_on,True,1,,,,f,off,,,,,,,,,0.0-26.0,,,,f,616,dark,blicket_images/lc.jpg,,99840,,blicket,36,image-keyboard-response,,
368,color_on,,,,,,,,,,,,,,blicket_images/lc.jpg,,0.0-27.0,,,, ,343,dark,blicket_images/lc_off.jpg,,100184,,feedback,37,image-keyboard-response,,
368,color_on,True,1,,,,j,on,,,,,,,,,0.0-28.0,,,,j,582,dark,blicket_images/ds.jpg,,100768,,blicket,38,image-keyboard-response,,
368,color_on,,,,,,,,,,,,,,blicket_images/ds.jpg,,0.0-29.0,,,, ,232,dark,blicket_images/ds_on.jpg,,101001,,feedback,39,image-keyboard-response,,
368,color_on,True,1,,,,j,on,,,,,,,,,0.0-30.0,,,,j,598,dark,blicket_images/dc.jpg,,101600,,blicket,40,image-keyboard-response,,
368,color_on,,,,,,,,,,,,,,blicket_images/dc.jpg,,0.0-31.0,,,, ,343,dark,blicket_images/dc_on.jpg,,101944,,feedback,41,image-keyboard-response,,
368,color_on,True,1,,,,f,off,,,,,,,,,0.0-32.0,,,,f,550,dark,blicket_images/lc.jpg,,102496,,blicket,42,image-keyboard-response,,
368,color_on,,,,,,,,,,,,,,blicket_images/lc.jpg,,0.0-33.0,,,, ,207,dark,blicket_images/lc_off.jpg,,102704,,feedback,43,image-keyboard-response,,
368,color_on,True,1,,,,f,off,,,,,,,,,0.0-34.0,,,,f,591,dark,blicket_images/ls.jpg,,103297,,blicket,44,image-keyboard-response,,
368,color_on,,,,,,,,,,,,,,blicket_images/ls.jpg,,0.0-35.0,,,, ,188,dark,blicket_images/ls_off.jpg,,103487,,feedback,45,image-keyboard-response,,
368,color_on,True,1,,,,j,on,,,,,,,,,0.0-36.0,,,,j,567,dark,blicket_images/ds.jpg,,104055,,blicket,46,image-keyboard-response,,
368,color_on,,,,,,,,,,,,,,blicket_images/ds.jpg,,0.0-37.0,,,, ,127,dark,blicket_images/ds_on.jpg,,104184,,feedback,47,image-keyboard-response,,
368,color_on,True,1,,,blicket_images/ds.jpg,,ds,,,,,,,,blicket_images/ds.jpg,0.0-38.0,,,,ds,9996,dark,"Which of these options shows the image from the last trial, that you just saw?",,114183,,pop_quiz,48,html-button-response,,
368,color_on,False,0,,,,,"['dc', 'ds']",,,,,,,,,0.0-39.0,,[0],,"['dc', 'ds', 'lc', 'ls']",11297,dark,,,125487,,rule_question,49,survey-multi-select,,
368,color_on,,,,,,,,,,,,,,,,0.0-40.0,,,,0,1959,dark,"<p>Thank you for participating!</p>You answered 15 out of 16 trials correctly, and will recieve a $0.75 bonus.<p>Now you will complete a short survey before finishing the experiment.</p>",,127448,,,50,html-button-response,,
368,color_on,,,38,0.75,,,,Non-Hispanic,,,,,Male,,,0.0-41.0,0.9375,,White,"{'age': '38', 'race': 'White', 'gender': 'Male', 'feedback': '', 'ethnicity': 'Non-Hispanic', 'other_race': '', 'other_gender': ''}",9118,dark,,,136567,,exit_survey,51,survey-html-form,,
416,color_on,,,,,,,,,[],[],[],,,,,0.0-0.0,,,,,,light,,True,1259,False,,0,preload,,
416,color_on,,,,,,,,,[],[],[],,,,,0.0-1.0,,,,,,light,,True,1697,False,,1,preload,,
416,color_on,,,,,,,,,,,,,,,,0.0-2.0,,,,,,light,,True,6302,,,2,fullscreen,,
