workerid,proliferate.condition,accuracy,accuracy_bool,correct_img,correct_key,correct_response,img_selected,internal_node_id,question_order,response,rt,rule,stimulus,time_elapsed,trial,trial_index,trial_type,error
404,color_on,False,0,,j,on,,0.0-6.0,,f,2610,dark,blicket_images/dc.jpg,76695,blicket,10,image-keyboard-response,
404,color_on,True,1,,f,off,,0.0-8.0,,f,1580,dark,blicket_images/lc.jpg,80703,blicket,12,image-keyboard-response,
404,color_on,True,1,,j,on,,0.0-10.0,,j,2069,dark,blicket_images/dc.jpg,84527,blicket,14,image-keyboard-response,
404,color_on,True,1,,f,off,,0.0-12.0,,f,2120,dark,blicket_images/ls.jpg,87887,blicket,16,image-keyboard-response,
404,color_on,True,1,,j,on,,0.0-14.0,,j,2748,dark,blicket_images/ds.jpg,93167,blicket,18,image-keyboard-response,
404,color_on,True,1,,f,off,,0.0-16.0,,f,1126,dark,blicket_images/ls.jpg,95310,blicket,20,image-keyboard-response,
404,color_on,True,1,,j,on,,0.0-18.0,,j,974,dark,blicket_images/ds.jpg,97182,blicket,22,image-keyboard-response,
404,color_on,True,1,,f,off,,0.0-20.0,,f,1656,dark,blicket_images/lc.jpg,99742,blicket,24,image-keyboard-response,
404,color_on,True,1,,f,off,,0.0-22.0,,f,1228,dark,blicket_images/ls.jpg,101991,blicket,26,image-keyboard-response,
404,color_on,True,1,,j,on,,0.0-24.0,,j,1262,dark,blicket_images/dc.jpg,104137,blicket,28,image-keyboard-response,
404,color_on,True,1,,f,off,,0.0-26.0,,f,1438,dark,blicket_images/lc.jpg,106465,blicket,30,image-keyboard-response,
404,color_on,True,1,,j,on,,0.0-28.0,,j,1182,dark,blicket_images/ds.jpg,108617,blicket,32,image-keyboard-response,
404,color_on,True,1,,f,off,,0.0-30.0,,f,2319,dark,blicket_images/ls.jpg,111875,blicket,34,image-keyboard-response,
404,color_on,True,1,,f,off,,0.0-32.0,,f,1678,dark,blicket_images/lc.jpg,114257,blicket,36,image-keyboard-response,
404,color_on,True,1,,j,on,,0.0-34.0,,j,1630,dark,blicket_images/ds.jpg,116553,blicket,38,image-keyboard-response,
404,color_on,True,1,,j,on,,0.0-36.0,,j,950,dark,blicket_images/dc.jpg,120953,blicket,40,image-keyboard-response,
404,color_on,True,1,blicket_images/dc.jpg,,dc,blicket_images/dc.jpg,0.0-38.0,,dc,4717,dark,"Which of these options shows the image from the last trial, that you just saw?",126307,pop_quiz,42,html-button-response,
404,color_on,True,1,,,"['dc', 'ds']",,0.0-39.0,[0],"['dc', 'ds']",4958,dark,,131269,rule_question,43,survey-multi-select,
438,color_on,True,1,,j,on,,0.0-6.0,,j,4398,dark,blicket_images/dc.jpg,97484,blicket,10,image-keyboard-response,
438,color_on,True,1,,f,off,,0.0-8.0,,f,4754,dark,blicket_images/ls.jpg,104148,blicket,12,image-keyboard-response,
438,color_on,False,0,,f,off,,0.0-10.0,,j,1293,dark,blicket_images/lc.jpg,107370,blicket,14,image-keyboard-response,
438,color_on,True,1,,j,on,,0.0-12.0,,j,1378,dark,blicket_images/ds.jpg,109960,blicket,16,image-keyboard-response,
438,color_on,True,1,,f,off,,0.0-14.0,,f,1803,dark,blicket_images/lc.jpg,114281,blicket,18,image-keyboard-response,
438,color_on,True,1,,j,on,,0.0-16.0,,j,4589,dark,blicket_images/dc.jpg,121885,blicket,20,image-keyboard-response,
438,color_on,True,1,,f,off,,0.0-18.0,,f,1807,dark,blicket_images/lc.jpg,126164,blicket,22,image-keyboard-response,
438,color_on,True,1,,f,off,,0.0-20.0,,f,1643,dark,blicket_images/ls.jpg,130767,blicket,24,image-keyboard-response,
438,color_on,True,1,,j,on,,0.0-22.0,,j,2523,dark,blicket_images/ds.jpg,134090,blicket,26,image-keyboard-response,
438,color_on,True,1,,j,on,,0.0-24.0,,j,1862,dark,blicket_images/dc.jpg,137749,blicket,28,image-keyboard-response,
438,color_on,True,1,,j,on,,0.0-26.0,,j,1615,dark,blicket_images/ds.jpg,140105,blicket,30,image-keyboard-response,
438,color_on,True,1,,f,off,,0.0-28.0,,f,1129,dark,blicket_images/ls.jpg,142161,blicket,32,image-keyboard-response,
438,color_on,True,1,,j,on,,0.0-30.0,,j,2018,dark,blicket_images/ds.jpg,145140,blicket,34,image-keyboard-response,
438,color_on,True,1,,j,on,,0.0-32.0,,j,1259,dark,blicket_images/dc.jpg,147101,blicket,36,image-keyboard-response,
438,color_on,True,1,,j,on,,0.0-34.0,,j,1031,dark,blicket_images/ds.jpg,148802,blicket,38,image-keyboard-response,
438,color_on,True,1,,j,on,,0.0-36.0,,j,724,dark,blicket_images/dc.jpg,150267,blicket,40,image-keyboard-response,
438,color_on,True,1,blicket_images/dc.jpg,,dc,blicket_images/dc.jpg,0.0-38.0,,dc,4557,dark,"Which of these options shows the image from the last trial, that you just saw?",155739,pop_quiz,42,html-button-response,
438,color_on,True,1,,,"['dc', 'ds']",,0.0-39.0,[0],"['dc', 'ds']",8792,dark,,164536,rule_question,43,survey-multi-select,
343,color_on,False,0,,f,off,,0.0-6.0,,j,5198,dark,blicket_images/ls.jpg,143120,blicket,10,image-keyboard-response,
343,color_on,True,1,,j,on,,0.0-8.0,,j,4370,dark,blicket_images/dc.jpg,152586,blicket,12,image-keyboard-response,
343,color_on,True,1,,j,on,,0.0-10.0,,j,3646,dark,blicket_images/ds.jpg,158446,blicket,14,image-keyboard-response,
343,color_on,True,1,,j,on,,0.0-12.0,,j,3224,dark,blicket_images/dc.jpg,163951,blicket,16,image-keyboard-response,
343,color_on,True,1,,f,off,,0.0-14.0,,f,2031,dark,blicket_images/ls.jpg,167264,blicket,18,image-keyboard-response,
343,color_on,True,1,,f,off,,0.0-16.0,,f,2438,dark,blicket_images/lc.jpg,171061,blicket,20,image-keyboard-response,
343,color_on,True,1,,j,on,,0.0-18.0,,j,2461,dark,blicket_images/ds.jpg,174972,blicket,22,image-keyboard-response,
343,color_on,True,1,,f,off,,0.0-20.0,,f,1739,dark,blicket_images/ls.jpg,177634,blicket,24,image-keyboard-response,
343,color_on,True,1,,j,on,,0.0-22.0,,j,2712,dark,blicket_images/ds.jpg,181238,blicket,26,image-keyboard-response,
343,color_on,True,1,,f,off,,0.0-24.0,,f,2318,dark,blicket_images/lc.jpg,184363,blicket,28,image-keyboard-response,
343,color_on,True,1,,j,on,,0.0-26.0,,j,1847,dark,blicket_images/dc.jpg,187155,blicket,30,image-keyboard-response,
343,color_on,True,1,,j,on,,0.0-28.0,,j,2437,dark,blicket_images/ds.jpg,190835,blicket,32,image-keyboard-response,
343,color_on,True,1,,j,on,,0.0-30.0,,j,1916,dark,blicket_images/dc.jpg,193619,blicket,34,image-keyboard-response,
343,color_on,True,1,,f,off,,0.0-32.0,,f,1816,dark,blicket_images/lc.jpg,196165,blicket,36,image-keyboard-response,
343,color_on,True,1,,f,off,,0.0-34.0,,f,1346,dark,blicket_images/ls.jpg,198240,blicket,38,image-keyboard-response,
343,color_on,True,1,,j,on,,0.0-36.0,,j,1110,dark,blicket_images/dc.jpg,200101,blicket,40,image-keyboard-response,
343,color_on,False,0,blicket_images/dc.jpg,,dc,blicket_images/ds.jpg,0.0-38.0,,ds,9835,dark,"Which of these options shows the image from the last trial, that you just saw?",210871,pop_quiz,42,html-button-response,
343,color_on,True,1,,,"['dc', 'ds']",,0.0-39.0,[0],"['dc', 'ds']",8462,dark,,219365,rule_question,43,survey-multi-select,
390,color_on,False,0,,f,off,,0.0-6.0,,j,8996,dark,blicket_images/ls.jpg,188754,blicket,16,image-keyboard-response,
390,color_on,True,1,,j,on,,0.0-8.0,,j,7559,dark,blicket_images/ds.jpg,199025,blicket,18,image-keyboard-response,
390,color_on,True,1,,j,on,,0.0-10.0,,j,4517,dark,blicket_images/dc.jpg,204959,blicket,20,image-keyboard-response,
390,color_on,True,1,,f,off,,0.0-12.0,,f,4303,dark,blicket_images/lc.jpg,210265,blicket,22,image-keyboard-response,
390,color_on,True,1,,f,off,,0.0-14.0,,f,3413,dark,blicket_images/ls.jpg,216495,blicket,24,image-keyboard-response,
390,color_on,True,1,,j,on,,0.0-16.0,,j,1463,dark,blicket_images/dc.jpg,220537,blicket,26,image-keyboard-response,
390,color_on,True,1,,f,off,,0.0-18.0,,f,2965,dark,blicket_images/lc.jpg,224551,blicket,28,image-keyboard-response,
390,color_on,True,1,,f,off,,0.0-20.0,,f,1670,dark,blicket_images/ls.jpg,227689,blicket,30,image-keyboard-response,
390,color_on,True,1,,j,on,,0.0-22.0,,j,3871,dark,blicket_images/ds.jpg,232306,blicket,32,image-keyboard-response,
390,color_on,True,1,,j,on,,0.0-24.0,,j,2124,dark,blicket_images/dc.jpg,235183,blicket,34,image-keyboard-response,
390,color_on,True,1,,j,on,,0.0-26.0,,j,1909,dark,blicket_images/ds.jpg,237927,blicket,36,image-keyboard-response,
390,color_on,True,1,,f,off,,0.0-28.0,,f,1685,dark,blicket_images/lc.jpg,240287,blicket,38,image-keyboard-response,
390,color_on,True,1,,j,on,,0.0-30.0,,j,3327,dark,blicket_images/ds.jpg,244961,blicket,40,image-keyboard-response,
390,color_on,True,1,,j,on,,0.0-32.0,,j,1511,dark,blicket_images/dc.jpg,247689,blicket,42,image-keyboard-response,
390,color_on,True,1,,f,off,,0.0-34.0,,f,1477,dark,blicket_images/ls.jpg,249823,blicket,44,image-keyboard-response,
390,color_on,True,1,,j,on,,0.0-36.0,,j,1037,dark,blicket_images/dc.jpg,252807,blicket,46,image-keyboard-response,
390,color_on,False,0,blicket_images/dc.jpg,,dc,blicket_images/ds.jpg,0.0-38.0,,ds,14034,dark,"Which of these options shows the image from the last trial, that you just saw?",267947,pop_quiz,48,html-button-response,
390,color_on,True,1,,,"['dc', 'ds']",,0.0-39.0,[0],"['dc', 'ds']",19154,dark,,287126,rule_question,49,survey-multi-select,
462,color_on,False,0,,j,on,,0.0-6.0,,f,2300,light,blicket_images/ls.jpg,50852,blicket,10,image-keyboard-response,
462,color_on,True,1,,j,on,,0.0-8.0,,j,1713,light,blicket_images/lc.jpg,53581,blicket,12,image-keyboard-response,
462,color_on,True,1,,j,on,,0.0-10.0,,j,1495,light,blicket_images/ls.jpg,55978,blicket,14,image-keyboard-response,
462,color_on,True,1,,f,off,,0.0-12.0,,f,1982,light,blicket_images/dc.jpg,58554,blicket,16,image-keyboard-response,
462,color_on,True,1,,j,on,,0.0-14.0,,j,1297,light,blicket_images/ls.jpg,60791,blicket,18,image-keyboard-response,
462,color_on,True,1,,f,off,,0.0-16.0,,f,1161,light,blicket_images/ds.jpg,62519,blicket,20,image-keyboard-response,
462,color_on,True,1,,j,on,,0.0-18.0,,j,830,light,blicket_images/lc.jpg,63803,blicket,22,image-keyboard-response,
462,color_on,True,1,,j,on,,0.0-20.0,,j,1151,light,blicket_images/ls.jpg,65394,blicket,24,image-keyboard-response,
462,color_on,True,1,,f,off,,0.0-22.0,,f,646,light,blicket_images/dc.jpg,66454,blicket,26,image-keyboard-response,
462,color_on,True,1,,f,off,,0.0-24.0,,f,1445,light,blicket_images/ds.jpg,68346,blicket,28,image-keyboard-response,
462,color_on,True,1,,f,off,,0.0-26.0,,f,702,light,blicket_images/dc.jpg,69596,blicket,30,image-keyboard-response,
462,color_on,True,1,,j,on,,0.0-28.0,,j,616,light,blicket_images/lc.jpg,70575,blicket,32,image-keyboard-response,
462,color_on,True,1,,f,off,,0.0-30.0,,f,1005,light,blicket_images/ds.jpg,71929,blicket,34,image-keyboard-response,
462,color_on,True,1,,f,off,,0.0-32.0,,f,559,light,blicket_images/dc.jpg,72912,blicket,36,image-keyboard-response,
462,color_on,True,1,,f,off,,0.0-34.0,,f,654,light,blicket_images/ds.jpg,73894,blicket,38,image-keyboard-response,
462,color_on,True,1,,j,on,,0.0-36.0,,j,677,light,blicket_images/lc.jpg,74872,blicket,40,image-keyboard-response,
462,color_on,True,1,blicket_images/lc.jpg,,lc,blicket_images/lc.jpg,0.0-38.0,,lc,6150,light,"Which of these options shows the image from the last trial, that you just saw?",81346,pop_quiz,42,html-button-response,
462,color_on,True,1,,,"['lc', 'ls']",,0.0-39.0,[0],"['lc', 'ls']",4771,light,,86129,rule_question,43,survey-multi-select,
360,color_on,True,1,,j,on,,0.0-6.0,,j,2440,dark,blicket_images/dc.jpg,104458,blicket,16,image-keyboard-response,
360,color_on,True,1,,f,off,,0.0-8.0,,f,2070,dark,blicket_images/ls.jpg,108753,blicket,18,image-keyboard-response,
360,color_on,False,0,,f,off,,0.0-10.0,,j,1063,dark,blicket_images/lc.jpg,111388,blicket,20,image-keyboard-response,
360,color_on,True,1,,j,on,,0.0-12.0,,j,1222,dark,blicket_images/dc.jpg,113977,blicket,22,image-keyboard-response,
360,color_on,True,1,,f,off,,0.0-14.0,,f,906,dark,blicket_images/lc.jpg,117178,blicket,24,image-keyboard-response,
360,color_on,True,1,,j,on,,0.0-16.0,,j,724,dark,blicket_images/dc.jpg,118242,blicket,26,image-keyboard-response,
360,color_on,True,1,,f,off,,0.0-18.0,,f,790,dark,blicket_images/ls.jpg,119314,blicket,28,image-keyboard-response,
360,color_on,True,1,,j,on,,0.0-20.0,,j,1781,dark,blicket_images/ds.jpg,121329,blicket,30,image-keyboard-response,
360,color_on,True,1,,j,on,,0.0-22.0,,j,2472,dark,blicket_images/dc.jpg,123963,blicket,32,image-keyboard-response,
360,color_on,True,1,,f,off,,0.0-24.0,,f,1142,dark,blicket_images/lc.jpg,125515,blicket,34,image-keyboard-response,
360,color_on,True,1,,j,on,,0.0-26.0,,j,702,dark,blicket_images/ds.jpg,126467,blicket,36,image-keyboard-response,
360,color_on,True,1,,f,off,,0.0-28.0,,f,949,dark,blicket_images/ls.jpg,127730,blicket,38,image-keyboard-response,
360,color_on,True,1,,j,on,,0.0-30.0,,j,1110,dark,blicket_images/ds.jpg,129139,blicket,40,image-keyboard-response,
360,color_on,True,1,,f,off,,0.0-32.0,,f,910,dark,blicket_images/ls.jpg,130411,blicket,42,image-keyboard-response,
360,color_on,True,1,,j,on,,0.0-34.0,,j,2315,dark,blicket_images/dc.jpg,133036,blicket,44,image-keyboard-response,
360,color_on,True,1,,j,on,,0.0-36.0,,j,1245,dark,blicket_images/ds.jpg,134690,blicket,46,image-keyboard-response,
360,color_on,False,0,blicket_images/ds.jpg,,ds,blicket_images/dc.jpg,0.0-38.0,,dc,31515,dark,"Which of these options shows the image from the last trial, that you just saw?",166610,pop_quiz,48,html-button-response,
360,color_on,True,1,,,"['dc', 'ds']",,0.0-39.0,[0],"['dc', 'ds']",3996,dark,,170610,rule_question,49,survey-multi-select,
424,color_on,True,1,,j,on,,0.0-6.0,,j,1873,dark,blicket_images/ds.jpg,42929,blicket,10,image-keyboard-response,
424,color_on,True,1,,f,off,,0.0-8.0,,f,1048,dark,blicket_images/lc.jpg,45159,blicket,12,image-keyboard-response,
424,color_on,False,0,,f,off,,0.0-10.0,,j,1031,dark,blicket_images/ls.jpg,47046,blicket,14,image-keyboard-response,
424,color_on,True,1,,j,on,,0.0-12.0,,j,911,dark,blicket_images/ds.jpg,49038,blicket,16,image-keyboard-response,
424,color_on,True,1,,j,on,,0.0-14.0,,j,783,dark,blicket_images/dc.jpg,50430,blicket,18,image-keyboard-response,
424,color_on,True,1,,f,off,,0.0-16.0,,f,1423,dark,blicket_images/lc.jpg,52510,blicket,20,image-keyboard-response,
424,color_on,True,1,,j,on,,0.0-18.0,,j,647,dark,blicket_images/ds.jpg,54062,blicket,22,image-keyboard-response,
424,color_on,True,1,,f,off,,0.0-20.0,,f,710,dark,blicket_images/ls.jpg,55214,blicket,24,image-keyboard-response,
424,color_on,True,1,,j,on,,0.0-22.0,,j,676,dark,blicket_images/dc.jpg,56542,blicket,26,image-keyboard-response,
424,color_on,True,1,,f,off,,0.0-24.0,,f,1071,dark,blicket_images/lc.jpg,58070,blicket,28,image-keyboard-response,
424,color_on,True,1,,f,off,,0.0-26.0,,f,656,dark,blicket_images/ls.jpg,59111,blicket,30,image-keyboard-response,
424,color_on,True,1,,f,off,,0.0-28.0,,f,640,dark,blicket_images/lc.jpg,60151,blicket,32,image-keyboard-response,
424,color_on,True,1,,j,on,,0.0-30.0,,j,671,dark,blicket_images/dc.jpg,61118,blicket,34,image-keyboard-response,
424,color_on,True,1,,f,off,,0.0-32.0,,f,560,dark,blicket_images/ls.jpg,62041,blicket,36,image-keyboard-response,
424,color_on,True,1,,f,off,,0.0-34.0,,f,631,dark,blicket_images/lc.jpg,63006,blicket,38,image-keyboard-response,
424,color_on,True,1,,j,on,,0.0-36.0,,j,576,dark,blicket_images/ds.jpg,64063,blicket,40,image-keyboard-response,
424,color_on,False,0,blicket_images/ds.jpg,,ds,blicket_images/dc.jpg,0.0-38.0,,dc,6692,dark,"Which of these options shows the image from the last trial, that you just saw?",71147,pop_quiz,42,html-button-response,
424,color_on,True,1,,,"['dc', 'ds']",,0.0-39.0,[0],"['dc', 'ds']",3945,dark,,75096,rule_question,43,survey-multi-select,
412,color_on,True,1,,j,on,,0.0-6.0,,j,5158,light,blicket_images/ls.jpg,121409,blicket,10,image-keyboard-response,
412,color_on,True,1,,f,off,,0.0-8.0,,f,7120,light,blicket_images/dc.jpg,132840,blicket,12,image-keyboard-response,
412,color_on,True,1,,j,on,,0.0-10.0,,j,5582,light,blicket_images/lc.jpg,139982,blicket,14,image-keyboard-response,
412,color_on,True,1,,f,off,,0.0-12.0,,f,1966,light,blicket_images/ds.jpg,143120,blicket,16,image-keyboard-response,
412,color_on,True,1,,j,on,,0.0-14.0,,j,1718,light,blicket_images/ls.jpg,145735,blicket,18,image-keyboard-response,
412,color_on,True,1,,j,on,,0.0-16.0,,j,1606,light,blicket_images/lc.jpg,148127,blicket,20,image-keyboard-response,
412,color_on,True,1,,f,off,,0.0-18.0,,f,1166,light,blicket_images/ds.jpg,149918,blicket,22,image-keyboard-response,
412,color_on,True,1,,f,off,,0.0-20.0,,f,1342,light,blicket_images/dc.jpg,151943,blicket,24,image-keyboard-response,
412,color_on,True,1,,f,off,,0.0-22.0,,f,1430,light,blicket_images/ds.jpg,153935,blicket,26,image-keyboard-response,
412,color_on,True,1,,f,off,,0.0-24.0,,f,1288,light,blicket_images/dc.jpg,155784,blicket,28,image-keyboard-response,
412,color_on,True,1,,j,on,,0.0-26.0,,j,1150,light,blicket_images/lc.jpg,157335,blicket,30,image-keyboard-response,
412,color_on,True,1,,f,off,,0.0-28.0,,f,1279,light,blicket_images/dc.jpg,158991,blicket,32,image-keyboard-response,
412,color_on,True,1,,j,on,,0.0-30.0,,j,1375,light,blicket_images/lc.jpg,160761,blicket,34,image-keyboard-response,
412,color_on,True,1,,j,on,,0.0-32.0,,j,1359,light,blicket_images/ls.jpg,162440,blicket,36,image-keyboard-response,
412,color_on,True,1,,f,off,,0.0-34.0,,f,2175,light,blicket_images/ds.jpg,164898,blicket,38,image-keyboard-response,
412,color_on,True,1,,j,on,,0.0-36.0,,j,1325,light,blicket_images/lc.jpg,166720,blicket,40,image-keyboard-response,
412,color_on,False,0,blicket_images/lc.jpg,,lc,blicket_images/ls.jpg,0.0-38.0,,ls,20547,light,"Which of these options shows the image from the last trial, that you just saw?",187534,pop_quiz,42,html-button-response,
412,color_on,True,1,,,"['lc', 'ls']",,0.0-39.0,[0],"['lc', 'ls']",5047,light,,192585,rule_question,43,survey-multi-select,
368,color_on,True,1,,j,on,,0.0-6.0,,j,2164,dark,blicket_images/dc.jpg,80767,blicket,16,image-keyboard-response,
368,color_on,False,0,,f,off,,0.0-8.0,,j,2167,dark,blicket_images/lc.jpg,84048,blicket,18,image-keyboard-response,
368,color_on,True,1,,f,off,,0.0-10.0,,f,3895,dark,blicket_images/ls.jpg,89256,blicket,20,image-keyboard-response,
368,color_on,True,1,,j,on,,0.0-12.0,,j,823,dark,blicket_images/dc.jpg,92231,blicket,22,image-keyboard-response,
368,color_on,True,1,,j,on,,0.0-14.0,,j,607,dark,blicket_images/ds.jpg,93528,blicket,24,image-keyboard-response,
368,color_on,True,1,,f,off,,0.0-16.0,,f,639,dark,blicket_images/ls.jpg,94664,blicket,26,image-keyboard-response,
368,color_on,True,1,,j,on,,0.0-18.0,,j,583,dark,blicket_images/ds.jpg,95736,blicket,28,image-keyboard-response,
368,color_on,True,1,,j,on,,0.0-20.0,,j,591,dark,blicket_images/dc.jpg,96736,blicket,30,image-keyboard-response,
368,color_on,True,1,,f,off,,0.0-22.0,,f,711,dark,blicket_images/ls.jpg,97872,blicket,32,image-keyboard-response,
368,color_on,True,1,,j,on,,0.0-24.0,,j,528,dark,blicket_images/ds.jpg,98856,blicket,34,image-keyboard-response,
368,color_on,True,1,,f,off,,0.0-26.0,,f,616,dark,blicket_images/lc.jpg,99840,blicket,36,image-keyboard-response,
368,color_on,True,1,,j,on,,0.0-28.0,,j,582,dark,blicket_images/ds.jpg,100768,blicket,38,image-keyboard-response,
368,color_on,True,1,,j,on,,0.0-30.0,,j,598,dark,blicket_images/dc.jpg,101600,blicket,40,image-keyboard-response,
368,color_on,True,1,,f,off,,0.0-32.0,,f,550,dark,blicket_images/lc.jpg,102496,blicket,42,image-keyboard-response,
368,color_on,True,1,,f,off,,0.0-34.0,,f,591,dark,blicket_images/ls.jpg,103297,blicket,44,image-keyboard-response,
368,color_on,True,1,,j,on,,0.0-36.0,,j,567,dark,blicket_images/ds.jpg,104055,blicket,46,image-keyboard-response,
368,color_on,True,1,blicket_images/ds.jpg,,ds,blicket_images/ds.jpg,0.0-38.0,,ds,9996,dark,"Which of these options shows the image from the last trial, that you just saw?",114183,pop_quiz,48,html-button-response,
368,color_on,False,0,,,"['dc', 'ds']",,0.0-39.0,[0],"['dc', 'ds', 'lc', 'ls']",11297,dark,,125487,rule_question,49,survey-multi-select,
416,color_on,True,1,,j,on,,0.0-6.0,,j,8648,light,blicket_images/lc.jpg,150425,blicket,10,image-keyboard-response,
416,color_on,False,0,,f,off,,0.0-8.0,,j,6311,light,blicket_images/dc.jpg,159681,blicket,12,image-keyboard-response,
416,color_on,True,1,,j,on,,0.0-10.0,,j,2679,light,blicket_images/ls.jpg,167745,blicket,14,image-keyboard-response,
416,color_on,True,1,,f,off,,0.0-12.0,,f,2245,light,blicket_images/ds.jpg,174017,blicket,16,image-keyboard-response,
416,color_on,False,0,,j,on,,0.0-14.0,,f,6423,light,blicket_images/lc.jpg,182826,blicket,18,image-keyboard-response,
416,color_on,True,1,,j,on,,0.0-16.0,,j,3352,light,blicket_images/ls.jpg,187954,blicket,20,image-keyboard-response,
416,color_on,True,1,,f,off,,0.0-18.0,,f,2463,light,blicket_images/ds.jpg,193458,blicket,22,image-keyboard-response,
416,color_on,True,1,,j,on,,0.0-20.0,,j,2103,light,blicket_images/lc.jpg,197402,blicket,24,image-keyboard-response,
416,color_on,True,1,,f,off,,0.0-22.0,,f,2455,light,blicket_images/ds.jpg,201874,blicket,26,image-keyboard-response,
416,color_on,True,1,,f,off,,0.0-24.0,,f,2207,light,blicket_images/dc.jpg,204970,blicket,28,image-keyboard-response,
416,color_on,True,1,,j,on,,0.0-26.0,,j,1775,light,blicket_images/lc.jpg,211675,blicket,30,image-keyboard-response,
416,color_on,True,1,,f,off,,0.0-28.0,,f,1423,light,blicket_images/ds.jpg,214203,blicket,32,image-keyboard-response,
416,color_on,True,1,,j,on,,0.0-30.0,,j,1750,light,blicket_images/ls.jpg,216739,blicket,34,image-keyboard-response,
416,color_on,True,1,,f,off,,0.0-32.0,,f,2288,light,blicket_images/dc.jpg,220123,blicket,36,image-keyboard-response,
416,color_on,True,1,,j,on,,0.0-34.0,,j,6663,light,blicket_images/ls.jpg,227539,blicket,38,image-keyboard-response,
416,color_on,True,1,,j,on,,0.0-36.0,,j,895,light,blicket_images/lc.jpg,229179,blicket,40,image-keyboard-response,
416,color_on,False,0,blicket_images/lc.jpg,,lc,blicket_images/ls.jpg,0.0-38.0,,ls,7719,light,"Which of these options shows the image from the last trial, that you just saw?",238110,pop_quiz,42,html-button-response,
416,color_on,True,1,,,"['lc', 'ls']",,0.0-39.0,[0],"['lc', 'ls']",7904,light,,246019,rule_question,43,survey-multi-select,
376,color_on,True,1,,j,on,,0.0-6.0,,j,2461,dark,blicket_images/dc.jpg,59105,blicket,10,image-keyboard-response,
376,color_on,True,1,,f,off,,0.0-8.0,,f,1691,dark,blicket_images/ls.jpg,62854,blicket,12,image-keyboard-response,
376,color_on,True,1,,j,on,,0.0-10.0,,j,898,dark,blicket_images/dc.jpg,65818,blicket,14,image-keyboard-response,
376,color_on,True,1,,j,on,,0.0-12.0,,j,1099,dark,blicket_images/ds.jpg,67381,blicket,16,image-keyboard-response,
376,color_on,True,1,,f,off,,0.0-14.0,,f,973,dark,blicket_images/ls.jpg,69606,blicket,18,image-keyboard-response,
376,color_on,True,1,,j,on,,0.0-16.0,,j,975,dark,blicket_images/ds.jpg,71517,blicket,20,image-keyboard-response,
376,color_on,True,1,,f,off,,0.0-18.0,,f,2624,dark,blicket_images/lc.jpg,74727,blicket,22,image-keyboard-response,
376,color_on,True,1,,j,on,,0.0-20.0,,j,687,dark,blicket_images/ds.jpg,75850,blicket,24,image-keyboard-response,
376,color_on,True,1,,f,off,,0.0-22.0,,f,967,dark,blicket_images/ls.jpg,77278,blicket,26,image-keyboard-response,
376,color_on,True,1,,j,on,,0.0-24.0,,j,693,dark,blicket_images/dc.jpg,78623,blicket,28,image-keyboard-response,
376,color_on,True,1,,f,off,,0.0-26.0,,f,865,dark,blicket_images/ls.jpg,79834,blicket,30,image-keyboard-response,
376,color_on,True,1,,f,off,,0.0-28.0,,f,1018,dark,blicket_images/lc.jpg,81214,blicket,32,image-keyboard-response,
376,color_on,True,1,,j,on,,0.0-30.0,,j,770,dark,blicket_images/ds.jpg,82530,blicket,34,image-keyboard-response,
376,color_on,True,1,,f,off,,0.0-32.0,,f,822,dark,blicket_images/lc.jpg,83765,blicket,36,image-keyboard-response,
376,color_on,True,1,,f,off,,0.0-34.0,,f,1361,dark,blicket_images/ls.jpg,85653,blicket,38,image-keyboard-response,
376,color_on,True,1,,j,on,,0.0-36.0,,j,740,dark,blicket_images/dc.jpg,86703,blicket,40,image-keyboard-response,
376,color_on,False,0,blicket_images/dc.jpg,,dc,blicket_images/ds.jpg,0.0-38.0,,ds,8182,dark,"Which of these options shows the image from the last trial, that you just saw?",95200,pop_quiz,42,html-button-response,
376,color_on,True,1,,,"['dc', 'ds']",,0.0-39.0,[0],"['dc', 'ds']",4668,dark,,99874,rule_question,43,survey-multi-select,
364,color_on,True,1,,j,on,,0.0-6.0,,j,3047,light,blicket_images/ls.jpg,56119,blicket,10,image-keyboard-response,
364,color_on,True,1,,f,off,,0.0-8.0,,f,3481,light,blicket_images/dc.jpg,61839,blicket,12,image-keyboard-response,
364,color_on,False,0,,f,off,,0.0-10.0,,j,2597,light,blicket_images/ds.jpg,66783,blicket,14,image-keyboard-response,
364,color_on,True,1,,j,on,,0.0-12.0,,j,737,light,blicket_images/ls.jpg,68952,blicket,16,image-keyboard-response,
364,color_on,True,1,,f,off,,0.0-14.0,,f,1325,light,blicket_images/dc.jpg,71101,blicket,18,image-keyboard-response,
364,color_on,True,1,,j,on,,0.0-16.0,,j,855,light,blicket_images/ls.jpg,72884,blicket,20,image-keyboard-response,
364,color_on,True,1,,j,on,,0.0-18.0,,j,724,light,blicket_images/lc.jpg,74165,blicket,22,image-keyboard-response,
364,color_on,True,1,,f,off,,0.0-20.0,,f,821,light,blicket_images/ds.jpg,75307,blicket,24,image-keyboard-response,
364,color_on,True,1,,j,on,,0.0-22.0,,j,1516,light,blicket_images/ls.jpg,77106,blicket,26,image-keyboard-response,
364,color_on,True,1,,f,off,,0.0-24.0,,f,943,light,blicket_images/ds.jpg,78351,blicket,28,image-keyboard-response,
364,color_on,True,1,,j,on,,0.0-26.0,,j,1545,light,blicket_images/lc.jpg,80205,blicket,30,image-keyboard-response,
364,color_on,True,1,,f,off,,0.0-28.0,,f,798,light,blicket_images/ds.jpg,81303,blicket,32,image-keyboard-response,
364,color_on,True,1,,f,off,,0.0-30.0,,f,1142,light,blicket_images/dc.jpg,82876,blicket,34,image-keyboard-response,
364,color_on,True,1,,j,on,,0.0-32.0,,j,777,light,blicket_images/lc.jpg,84218,blicket,36,image-keyboard-response,
364,color_on,True,1,,f,off,,0.0-34.0,,f,896,light,blicket_images/dc.jpg,85412,blicket,38,image-keyboard-response,
364,color_on,True,1,,j,on,,0.0-36.0,,j,953,light,blicket_images/lc.jpg,86716,blicket,40,image-keyboard-response,
364,color_on,True,1,blicket_images/lc.jpg,,lc,blicket_images/lc.jpg,0.0-38.0,,lc,3660,light,"Which of these options shows the image from the last trial, that you just saw?",90916,pop_quiz,42,html-button-response,
364,color_on,True,1,,,"['lc', 'ls']",,0.0-39.0,[0],"['lc', 'ls']",3815,light,,94734,rule_question,43,survey-multi-select,
434,color_on,False,0,,f,off,,0.0-6.0,,j,3519,dark,blicket_images/ls.jpg,63724,blicket,10,image-keyboard-response,
434,color_on,True,1,,j,on,,0.0-8.0,,j,2779,dark,blicket_images/dc.jpg,69788,blicket,12,image-keyboard-response,
434,color_on,True,1,,j,on,,0.0-10.0,,j,1467,dark,blicket_images/ds.jpg,73900,blicket,14,image-keyboard-response,
434,color_on,True,1,,f,off,,0.0-12.0,,f,2300,dark,blicket_images/ls.jpg,78932,blicket,16,image-keyboard-response,
434,color_on,True,1,,f,off,,0.0-14.0,,f,1179,dark,blicket_images/lc.jpg,82420,blicket,18,image-keyboard-response,
434,color_on,False,0,,j,on,,0.0-16.0,,f,1108,dark,blicket_images/ds.jpg,87012,blicket,20,image-keyboard-response,
434,color_on,True,1,,j,on,,0.0-18.0,,j,1228,dark,blicket_images/dc.jpg,89380,blicket,22,image-keyboard-response,
434,color_on,True,1,,f,off,,0.0-20.0,,f,979,dark,blicket_images/lc.jpg,91732,blicket,24,image-keyboard-response,
434,color_on,True,1,,f,off,,0.0-22.0,,f,650,dark,blicket_images/ls.jpg,93307,blicket,26,image-keyboard-response,
434,color_on,True,1,,j,on,,0.0-24.0,,j,675,dark,blicket_images/ds.jpg,94692,blicket,28,image-keyboard-response,
434,color_on,True,1,,j,on,,0.0-26.0,,j,587,dark,blicket_images/dc.jpg,95995,blicket,30,image-keyboard-response,
434,color_on,True,1,,f,off,,0.0-28.0,,f,884,dark,blicket_images/lc.jpg,97684,blicket,32,image-keyboard-response,
434,color_on,True,1,,j,on,,0.0-30.0,,j,762,dark,blicket_images/ds.jpg,99092,blicket,34,image-keyboard-response,
434,color_on,True,1,,j,on,,0.0-32.0,,j,627,dark,blicket_images/dc.jpg,100589,blicket,36,image-keyboard-response,
434,color_on,True,1,,f,off,,0.0-34.0,,f,555,dark,blicket_images/lc.jpg,101604,blicket,38,image-keyboard-response,
434,color_on,True,1,,j,on,,0.0-36.0,,j,480,dark,blicket_images/dc.jpg,102590,blicket,40,image-keyboard-response,
434,color_on,True,1,blicket_images/dc.jpg,,dc,blicket_images/dc.jpg,0.0-38.0,,dc,2829,dark,"Which of these options shows the image from the last trial, that you just saw?",105917,pop_quiz,42,html-button-response,
434,color_on,True,1,,,"['dc', 'ds']",,0.0-39.0,[0],"['dc', 'ds']",3757,dark,,109677,rule_question,43,survey-multi-select,
347,color_on,False,0,,j,on,,0.0-6.0,,f,3681,dark,blicket_images/ds.jpg,95533,blicket,10,image-keyboard-response,
347,color_on,False,0,,f,off,,0.0-8.0,,j,1590,dark,blicket_images/ls.jpg,101404,blicket,12,image-keyboard-response,
347,color_on,True,1,,j,on,,0.0-10.0,,j,1235,dark,blicket_images/dc.jpg,105435,blicket,14,image-keyboard-response,
347,color_on,True,1,,f,off,,0.0-12.0,,f,762,dark,blicket_images/ls.jpg,108903,blicket,16,image-keyboard-response,
347,color_on,True,1,,j,on,,0.0-14.0,,j,557,dark,blicket_images/ds.jpg,110319,blicket,18,image-keyboard-response,
347,color_on,True,1,,f,off,,0.0-16.0,,f,1832,dark,blicket_images/lc.jpg,112740,blicket,20,image-keyboard-response,
347,color_on,True,1,,j,on,,0.0-18.0,,j,1203,dark,blicket_images/ds.jpg,114471,blicket,22,image-keyboard-response,
347,color_on,True,1,,f,off,,0.0-20.0,,f,571,dark,blicket_images/lc.jpg,115623,blicket,24,image-keyboard-response,
347,color_on,True,1,,j,on,,0.0-22.0,,j,429,dark,blicket_images/dc.jpg,116547,blicket,26,image-keyboard-response,
347,color_on,True,1,,f,off,,0.0-24.0,,f,466,dark,blicket_images/lc.jpg,117560,blicket,28,image-keyboard-response,
347,color_on,True,1,,f,off,,0.0-26.0,,f,566,dark,blicket_images/ls.jpg,118552,blicket,30,image-keyboard-response,
347,color_on,True,1,,f,off,,0.0-28.0,,f,484,dark,blicket_images/lc.jpg,119625,blicket,32,image-keyboard-response,
347,color_on,True,1,,f,off,,0.0-30.0,,f,468,dark,blicket_images/ls.jpg,120550,blicket,34,image-keyboard-response,
347,color_on,True,1,,j,on,,0.0-32.0,,j,509,dark,blicket_images/dc.jpg,121495,blicket,36,image-keyboard-response,
347,color_on,True,1,,f,off,,0.0-34.0,,f,671,dark,blicket_images/lc.jpg,122657,blicket,38,image-keyboard-response,
347,color_on,True,1,,j,on,,0.0-36.0,,j,439,dark,blicket_images/ds.jpg,123585,blicket,40,image-keyboard-response,
347,color_on,False,0,blicket_images/ds.jpg,,ds,blicket_images/dc.jpg,0.0-38.0,,dc,2455,dark,"Which of these options shows the image from the last trial, that you just saw?",126517,pop_quiz,42,html-button-response,
347,color_on,True,1,,,"['dc', 'ds']",,0.0-39.0,[0],"['dc', 'ds']",4054,dark,,130578,rule_question,43,survey-multi-select,
384,color_on,True,1,,j,on,,0.0-6.0,,j,3931,dark,blicket_images/dc.jpg,86288,blicket,10,image-keyboard-response,
384,color_on,True,1,,f,off,,0.0-8.0,,f,1864,dark,blicket_images/lc.jpg,90223,blicket,12,image-keyboard-response,
384,color_on,True,1,,j,on,,0.0-10.0,,j,1855,dark,blicket_images/dc.jpg,93275,blicket,14,image-keyboard-response,
384,color_on,True,1,,j,on,,0.0-12.0,,j,1140,dark,blicket_images/ds.jpg,95019,blicket,16,image-keyboard-response,
384,color_on,True,1,,f,off,,0.0-14.0,,f,787,dark,blicket_images/lc.jpg,96268,blicket,18,image-keyboard-response,
384,color_on,True,1,,f,off,,0.0-16.0,,f,890,dark,blicket_images/ls.jpg,97853,blicket,20,image-keyboard-response,
384,color_on,True,1,,f,off,,0.0-18.0,,f,1584,dark,blicket_images/lc.jpg,99931,blicket,22,image-keyboard-response,
384,color_on,True,1,,f,off,,0.0-20.0,,f,1506,dark,blicket_images/ls.jpg,101893,blicket,24,image-keyboard-response,
384,color_on,True,1,,j,on,,0.0-22.0,,j,672,dark,blicket_images/ds.jpg,103034,blicket,26,image-keyboard-response,
384,color_on,True,1,,f,off,,0.0-24.0,,f,687,dark,blicket_images/ls.jpg,104194,blicket,28,image-keyboard-response,
384,color_on,True,1,,j,on,,0.0-26.0,,j,562,dark,blicket_images/ds.jpg,105167,blicket,30,image-keyboard-response,
384,color_on,True,1,,f,off,,0.0-28.0,,f,1193,dark,blicket_images/ls.jpg,106855,blicket,32,image-keyboard-response,
384,color_on,True,1,,j,on,,0.0-30.0,,j,442,dark,blicket_images/dc.jpg,107649,blicket,34,image-keyboard-response,
384,color_on,True,1,,f,off,,0.0-32.0,,f,760,dark,blicket_images/lc.jpg,108672,blicket,36,image-keyboard-response,
384,color_on,True,1,,j,on,,0.0-34.0,,j,593,dark,blicket_images/ds.jpg,109612,blicket,38,image-keyboard-response,
384,color_on,True,1,,j,on,,0.0-36.0,,j,516,dark,blicket_images/dc.jpg,110455,blicket,40,image-keyboard-response,
384,color_on,True,1,blicket_images/dc.jpg,,dc,blicket_images/dc.jpg,0.0-38.0,,dc,4199,dark,"Which of these options shows the image from the last trial, that you just saw?",114966,pop_quiz,42,html-button-response,
384,color_on,True,1,,,"['dc', 'ds']",,0.0-39.0,[0],"['dc', 'ds']",9818,dark,,124793,rule_question,43,survey-multi-select,
372,color_on,True,1,,j,on,,0.0-6.0,,j,2737,dark,blicket_images/ds.jpg,87894,blicket,16,image-keyboard-response,
372,color_on,True,1,,f,off,,0.0-8.0,,f,1726,dark,blicket_images/lc.jpg,92199,blicket,18,image-keyboard-response,
372,color_on,False,0,,f,off,,0.0-10.0,,j,1905,dark,blicket_images/ls.jpg,97009,blicket,20,image-keyboard-response,
372,color_on,False,0,,f,off,,0.0-12.0,,j,2109,dark,blicket_images/lc.jpg,102119,blicket,22,image-keyboard-response,
372,color_on,True,1,,j,on,,0.0-14.0,,j,1654,dark,blicket_images/dc.jpg,107336,blicket,24,image-keyboard-response,
372,color_on,False,0,,j,on,,0.0-16.0,,f,2014,dark,blicket_images/ds.jpg,110576,blicket,26,image-keyboard-response,
372,color_on,True,1,,f,off,,0.0-18.0,,f,1372,dark,blicket_images/ls.jpg,114799,blicket,28,image-keyboard-response,
372,color_on,True,1,,j,on,,0.0-20.0,,j,837,dark,blicket_images/ds.jpg,116807,blicket,30,image-keyboard-response,
372,color_on,True,1,,f,off,,0.0-22.0,,f,912,dark,blicket_images/ls.jpg,118415,blicket,32,image-keyboard-response,
372,color_on,True,1,,j,on,,0.0-24.0,,j,1217,dark,blicket_images/dc.jpg,120335,blicket,34,image-keyboard-response,
372,color_on,True,1,,j,on,,0.0-26.0,,j,1254,dark,blicket_images/ds.jpg,122224,blicket,36,image-keyboard-response,
372,color_on,True,1,,f,off,,0.0-28.0,,f,1511,dark,blicket_images/ls.jpg,124343,blicket,38,image-keyboard-response,
372,color_on,True,1,,f,off,,0.0-30.0,,f,926,dark,blicket_images/lc.jpg,125935,blicket,40,image-keyboard-response,
372,color_on,True,1,,j,on,,0.0-32.0,,j,953,dark,blicket_images/dc.jpg,127450,blicket,42,image-keyboard-response,
372,color_on,True,1,,f,off,,0.0-34.0,,f,881,dark,blicket_images/lc.jpg,128919,blicket,44,image-keyboard-response,
372,color_on,True,1,,j,on,,0.0-36.0,,j,752,dark,blicket_images/ds.jpg,130232,blicket,46,image-keyboard-response,
372,color_on,True,1,blicket_images/ds.jpg,,ds,blicket_images/ds.jpg,0.0-38.0,,ds,10354,dark,"Which of these options shows the image from the last trial, that you just saw?",141515,pop_quiz,48,html-button-response,
372,color_on,True,1,,,"['dc', 'ds']",,0.0-39.0,[0],"['dc', 'ds']",4474,dark,,145994,rule_question,49,survey-multi-select,
428,color_on,False,0,,f,off,,0.0-6.0,,j,3029,light,blicket_images/ds.jpg,71393,blicket,10,image-keyboard-response,
428,color_on,False,0,,j,on,,0.0-8.0,,f,2367,light,blicket_images/lc.jpg,84222,blicket,12,image-keyboard-response,
428,color_on,True,1,,f,off,,0.0-10.0,,f,3196,light,blicket_images/ds.jpg,95952,blicket,14,image-keyboard-response,
428,color_on,True,1,,j,on,,0.0-12.0,,j,2375,light,blicket_images/ls.jpg,99695,blicket,16,image-keyboard-response,
428,color_on,True,1,,f,off,,0.0-14.0,,f,2842,light,blicket_images/ds.jpg,109401,blicket,18,image-keyboard-response,
428,color_on,True,1,,j,on,,0.0-16.0,,j,2756,light,blicket_images/lc.jpg,115535,blicket,20,image-keyboard-response,
428,color_on,True,1,,f,off,,0.0-18.0,,f,1824,light,blicket_images/dc.jpg,118488,blicket,22,image-keyboard-response,
428,color_on,True,1,,j,on,,0.0-20.0,,j,1202,light,blicket_images/lc.jpg,121947,blicket,24,image-keyboard-response,
428,color_on,True,1,,f,off,,0.0-22.0,,f,1407,light,blicket_images/dc.jpg,124158,blicket,26,image-keyboard-response,
428,color_on,True,1,,f,off,,0.0-24.0,,f,1105,light,blicket_images/ds.jpg,126460,blicket,28,image-keyboard-response,
428,color_on,True,1,,j,on,,0.0-26.0,,j,1934,light,blicket_images/ls.jpg,129532,blicket,30,image-keyboard-response,
428,color_on,True,1,,j,on,,0.0-28.0,,j,842,light,blicket_images/lc.jpg,131317,blicket,32,image-keyboard-response,
428,color_on,True,1,,f,off,,0.0-30.0,,f,941,light,blicket_images/dc.jpg,132934,blicket,34,image-keyboard-response,
428,color_on,True,1,,j,on,,0.0-32.0,,j,1718,light,blicket_images/ls.jpg,135291,blicket,36,image-keyboard-response,
428,color_on,True,1,,f,off,,0.0-34.0,,f,921,light,blicket_images/ds.jpg,137943,blicket,38,image-keyboard-response,
428,color_on,True,1,,j,on,,0.0-36.0,,j,1337,light,blicket_images/ls.jpg,141020,blicket,40,image-keyboard-response,
428,color_on,False,0,blicket_images/ls.jpg,,ls,blicket_images/lc.jpg,0.0-38.0,,lc,9868,light,"Which of these options shows the image from the last trial, that you just saw?",152850,pop_quiz,42,html-button-response,
428,color_on,True,1,,,"['lc', 'ls']",,0.0-39.0,[0],"['lc', 'ls']",4689,light,,157544,rule_question,43,survey-multi-select,
397,color_on,False,0,,f,off,,0.0-6.0,,j,6091,dark,blicket_images/ls.jpg,468791,blicket,10,image-keyboard-response,
397,color_on,True,1,,f,off,,0.0-8.0,,f,6019,dark,blicket_images/lc.jpg,476569,blicket,12,image-keyboard-response,
397,color_on,False,0,,f,off,,0.0-10.0,,j,6597,dark,blicket_images/ls.jpg,485966,blicket,14,image-keyboard-response,
397,color_on,True,1,,j,on,,0.0-12.0,,j,2134,dark,blicket_images/ds.jpg,489822,blicket,16,image-keyboard-response,
397,color_on,False,0,,j,on,,0.0-14.0,,f,2165,dark,blicket_images/dc.jpg,497065,blicket,18,image-keyboard-response,
397,color_on,True,1,,j,on,,0.0-16.0,,j,2496,dark,blicket_images/ds.jpg,501410,blicket,20,image-keyboard-response,
397,color_on,False,0,,j,on,,0.0-18.0,,f,6060,dark,blicket_images/dc.jpg,508870,blicket,22,image-keyboard-response,
397,color_on,True,1,,j,on,,0.0-20.0,,j,1467,dark,blicket_images/ds.jpg,512875,blicket,24,image-keyboard-response,
397,color_on,False,0,,j,on,,0.0-22.0,,f,1545,dark,blicket_images/dc.jpg,516100,blicket,26,image-keyboard-response,
397,color_on,False,0,,f,off,,0.0-24.0,,j,2088,dark,blicket_images/lc.jpg,521215,blicket,28,image-keyboard-response,
397,color_on,True,1,,j,on,,0.0-26.0,,j,1427,dark,blicket_images/ds.jpg,523923,blicket,30,image-keyboard-response,
397,color_on,True,1,,f,off,,0.0-28.0,,f,1787,dark,blicket_images/ls.jpg,526860,blicket,32,image-keyboard-response,
397,color_on,True,1,,j,on,,0.0-30.0,,j,3394,dark,blicket_images/dc.jpg,531803,blicket,34,image-keyboard-response,
397,color_on,True,1,,f,off,,0.0-32.0,,f,1519,dark,blicket_images/lc.jpg,534453,blicket,36,image-keyboard-response,
397,color_on,False,0,,j,on,,0.0-34.0,,f,3773,dark,blicket_images/ds.jpg,540903,blicket,38,image-keyboard-response,
397,color_on,False,0,,j,on,,0.0-36.0,,f,4014,dark,blicket_images/dc.jpg,546379,blicket,40,image-keyboard-response,
397,color_on,False,0,blicket_images/dc.jpg,,dc,blicket_images/lc.jpg,0.0-38.0,,lc,7048,dark,"Which of these options shows the image from the last trial, that you just saw?",555469,pop_quiz,42,html-button-response,
397,color_on,False,0,,,"['dc', 'ds']",,0.0-39.0,[0],"['dc', 'ls']",10837,dark,,566314,rule_question,43,survey-multi-select,
349,color_on,False,0,,f,off,,0.0-6.0,,j,5930,light,blicket_images/dc.jpg,97699,blicket,10,image-keyboard-response,
349,color_on,True,1,,j,on,,0.0-8.0,,j,1407,light,blicket_images/ls.jpg,100532,blicket,12,image-keyboard-response,
349,color_on,False,0,,f,off,,0.0-10.0,,j,1678,light,blicket_images/ds.jpg,103939,blicket,14,image-keyboard-response,
349,color_on,True,1,,f,off,,0.0-12.0,,f,2318,light,blicket_images/dc.jpg,108675,blicket,16,image-keyboard-response,
349,color_on,True,1,,f,off,,0.0-14.0,,f,1007,light,blicket_images/ds.jpg,111220,blicket,18,image-keyboard-response,
349,color_on,True,1,,f,off,,0.0-16.0,,f,2126,light,blicket_images/dc.jpg,114963,blicket,20,image-keyboard-response,
349,color_on,True,1,,j,on,,0.0-18.0,,j,1022,light,blicket_images/ls.jpg,117395,blicket,22,image-keyboard-response,
349,color_on,True,1,,j,on,,0.0-20.0,,j,1710,light,blicket_images/lc.jpg,120243,blicket,24,image-keyboard-response,
349,color_on,True,1,,j,on,,0.0-22.0,,j,909,light,blicket_images/ls.jpg,122291,blicket,26,image-keyboard-response,
349,color_on,True,1,,f,off,,0.0-24.0,,f,1102,light,blicket_images/ds.jpg,124355,blicket,28,image-keyboard-response,
349,color_on,True,1,,j,on,,0.0-26.0,,j,1662,light,blicket_images/lc.jpg,126819,blicket,30,image-keyboard-response,
349,color_on,True,1,,f,off,,0.0-28.0,,f,1182,light,blicket_images/dc.jpg,128515,blicket,32,image-keyboard-response,
349,color_on,True,1,,j,on,,0.0-30.0,,j,1406,light,blicket_images/lc.jpg,130643,blicket,34,image-keyboard-response,
349,color_on,True,1,,f,off,,0.0-32.0,,f,735,light,blicket_images/ds.jpg,132067,blicket,36,image-keyboard-response,
349,color_on,True,1,,j,on,,0.0-34.0,,j,690,light,blicket_images/ls.jpg,133363,blicket,38,image-keyboard-response,
349,color_on,True,1,,j,on,,0.0-36.0,,j,734,light,blicket_images/lc.jpg,134675,blicket,40,image-keyboard-response,
349,color_on,False,0,blicket_images/lc.jpg,,lc,blicket_images/ls.jpg,0.0-38.0,,ls,6531,light,"Which of these options shows the image from the last trial, that you just saw?",141816,pop_quiz,42,html-button-response,
349,color_on,True,1,,,"['lc', 'ls']",,0.0-39.0,[0],"['lc', 'ls']",5403,light,,147224,rule_question,43,survey-multi-select,
446,color_on,False,0,,f,off,,0.0-6.0,,j,2967,dark,blicket_images/lc.jpg,160998,blicket,10,image-keyboard-response,
446,color_on,True,1,,j,on,,0.0-8.0,,j,1053,dark,blicket_images/ds.jpg,163886,blicket,12,image-keyboard-response,
446,color_on,True,1,,j,on,,0.0-10.0,,j,681,dark,blicket_images/dc.jpg,166713,blicket,14,image-keyboard-response,
446,color_on,True,1,,f,off,,0.0-12.0,,f,1304,dark,blicket_images/ls.jpg,168871,blicket,16,image-keyboard-response,
446,color_on,True,1,,j,on,,0.0-14.0,,j,610,dark,blicket_images/ds.jpg,170054,blicket,18,image-keyboard-response,
446,color_on,True,1,,j,on,,0.0-16.0,,j,626,dark,blicket_images/dc.jpg,171054,blicket,20,image-keyboard-response,
446,color_on,True,1,,f,off,,0.0-18.0,,f,548,dark,blicket_images/lc.jpg,171914,blicket,22,image-keyboard-response,
446,color_on,True,1,,f,off,,0.0-20.0,,f,1533,dark,blicket_images/ls.jpg,173762,blicket,24,image-keyboard-response,
446,color_on,True,1,,j,on,,0.0-22.0,,j,533,dark,blicket_images/ds.jpg,174870,blicket,26,image-keyboard-response,
446,color_on,True,1,,f,off,,0.0-24.0,,f,869,dark,blicket_images/ls.jpg,176103,blicket,28,image-keyboard-response,
446,color_on,True,1,,f,off,,0.0-26.0,,f,492,dark,blicket_images/lc.jpg,176949,blicket,30,image-keyboard-response,
446,color_on,True,1,,j,on,,0.0-28.0,,j,1031,dark,blicket_images/dc.jpg,178303,blicket,32,image-keyboard-response,
446,color_on,True,1,,f,off,,0.0-30.0,,f,1424,dark,blicket_images/ls.jpg,180080,blicket,34,image-keyboard-response,
446,color_on,True,1,,f,off,,0.0-32.0,,f,508,dark,blicket_images/lc.jpg,181382,blicket,36,image-keyboard-response,
446,color_on,True,1,,f,off,,0.0-34.0,,f,446,dark,blicket_images/ls.jpg,182141,blicket,38,image-keyboard-response,
446,color_on,True,1,,j,on,,0.0-36.0,,j,483,dark,blicket_images/dc.jpg,182903,blicket,40,image-keyboard-response,
446,color_on,True,1,blicket_images/dc.jpg,,dc,blicket_images/dc.jpg,0.0-38.0,,dc,5298,dark,"Which of these options shows the image from the last trial, that you just saw?",188486,pop_quiz,42,html-button-response,
446,color_on,True,1,,,"['dc', 'ds']",,0.0-39.0,[0],"['dc', 'ds']",9105,dark,,197597,rule_question,43,survey-multi-select,
584,color_on,True,1,,j,on,,0.0-6.0,,j,1354,dark,blicket_images/ds.jpg,168044,blicket,16,image-keyboard-response,
584,color_on,False,0,,f,off,,0.0-8.0,,j,893,dark,blicket_images/ls.jpg,170105,blicket,18,image-keyboard-response,
584,color_on,True,1,,f,off,,0.0-10.0,,f,951,dark,blicket_images/lc.jpg,172000,blicket,20,image-keyboard-response,
584,color_on,False,0,,f,off,,0.0-12.0,,j,707,dark,blicket_images/ls.jpg,173595,blicket,22,image-keyboard-response,
584,color_on,True,1,,j,on,,0.0-14.0,,j,479,dark,blicket_images/dc.jpg,174699,blicket,24,image-keyboard-response,
584,color_on,True,1,,j,on,,0.0-16.0,,j,453,dark,blicket_images/ds.jpg,175583,blicket,26,image-keyboard-response,
584,color_on,False,0,,f,off,,0.0-18.0,,j,457,dark,blicket_images/lc.jpg,176446,blicket,28,image-keyboard-response,
584,color_on,True,1,,f,off,,0.0-20.0,,f,428,dark,blicket_images/ls.jpg,177277,blicket,30,image-keyboard-response,
584,color_on,True,1,,j,on,,0.0-22.0,,j,443,dark,blicket_images/ds.jpg,178146,blicket,32,image-keyboard-response,
584,color_on,False,0,,j,on,,0.0-24.0,,f,431,dark,blicket_images/dc.jpg,179004,blicket,34,image-keyboard-response,
584,color_on,False,0,,f,off,,0.0-26.0,,j,378,dark,blicket_images/lc.jpg,179843,blicket,36,image-keyboard-response,
584,color_on,False,0,,f,off,,0.0-28.0,,j,317,dark,blicket_images/ls.jpg,180476,blicket,38,image-keyboard-response,
584,color_on,True,1,,j,on,,0.0-30.0,,j,335,dark,blicket_images/dc.jpg,181155,blicket,40,image-keyboard-response,
584,color_on,True,1,,f,off,,0.0-32.0,,f,352,dark,blicket_images/lc.jpg,181844,blicket,42,image-keyboard-response,
584,color_on,False,0,,f,off,,0.0-34.0,,j,393,dark,blicket_images/ls.jpg,182507,blicket,44,image-keyboard-response,
584,color_on,False,0,,j,on,,0.0-36.0,,f,305,dark,blicket_images/dc.jpg,183158,blicket,46,image-keyboard-response,
584,color_on,False,0,blicket_images/dc.jpg,,dc,blicket_images/lc.jpg,0.0-38.0,,lc,1876,dark,"Which of these options shows the image from the last trial, that you just saw?",185360,pop_quiz,48,html-button-response,
584,color_on,False,0,,,"['dc', 'ds']",,0.0-39.0,[0],['lc'],2297,dark,,187664,rule_question,49,survey-multi-select,
458,color_on,False,0,,j,on,,0.0-6.0,,f,4859,dark,blicket_images/ds.jpg,512879,blicket,16,image-keyboard-response,
458,color_on,True,1,,f,off,,0.0-8.0,,f,1740,dark,blicket_images/ls.jpg,516695,blicket,18,image-keyboard-response,
458,color_on,False,0,,f,off,,0.0-10.0,,j,1533,dark,blicket_images/lc.jpg,519391,blicket,20,image-keyboard-response,
458,color_on,False,0,,f,off,,0.0-12.0,,j,1395,dark,blicket_images/ls.jpg,522055,blicket,22,image-keyboard-response,
458,color_on,True,1,,j,on,,0.0-14.0,,j,851,dark,blicket_images/dc.jpg,523823,blicket,24,image-keyboard-response,
458,color_on,True,1,,f,off,,0.0-16.0,,f,786,dark,blicket_images/ls.jpg,525423,blicket,26,image-keyboard-response,
458,color_on,True,1,,j,on,,0.0-18.0,,j,1314,dark,blicket_images/dc.jpg,527591,blicket,28,image-keyboard-response,
458,color_on,True,1,,f,off,,0.0-20.0,,f,995,dark,blicket_images/lc.jpg,529374,blicket,30,image-keyboard-response,
458,color_on,False,0,,j,on,,0.0-22.0,,f,949,dark,blicket_images/dc.jpg,531343,blicket,32,image-keyboard-response,
458,color_on,False,0,,j,on,,0.0-24.0,,f,1094,dark,blicket_images/ds.jpg,533567,blicket,34,image-keyboard-response,
458,color_on,True,1,,f,off,,0.0-26.0,,f,1011,dark,blicket_images/ls.jpg,535640,blicket,36,image-keyboard-response,
458,color_on,True,1,,j,on,,0.0-28.0,,j,923,dark,blicket_images/ds.jpg,537479,blicket,38,image-keyboard-response,
458,color_on,True,1,,f,off,,0.0-30.0,,f,1082,dark,blicket_images/lc.jpg,539568,blicket,40,image-keyboard-response,
458,color_on,True,1,,j,on,,0.0-32.0,,j,666,dark,blicket_images/dc.jpg,541207,blicket,42,image-keyboard-response,
458,color_on,True,1,,f,off,,0.0-34.0,,f,627,dark,blicket_images/lc.jpg,542743,blicket,44,image-keyboard-response,
458,color_on,True,1,,j,on,,0.0-36.0,,j,668,dark,blicket_images/ds.jpg,544640,blicket,46,image-keyboard-response,
458,color_on,False,0,blicket_images/ds.jpg,,ds,blicket_images/ls.jpg,0.0-38.0,,ls,7838,dark,"Which of these options shows the image from the last trial, that you just saw?",553450,pop_quiz,48,html-button-response,
458,color_on,False,0,,,"['dc', 'ds']",,0.0-39.0,[0],['ds'],14713,dark,,568173,rule_question,49,survey-multi-select,
463,color_on,True,1,,j,on,,0.0-6.0,,j,3293,dark,blicket_images/dc.jpg,68952,blicket,10,image-keyboard-response,
463,color_on,True,1,,f,off,,0.0-8.0,,f,1084,dark,blicket_images/ls.jpg,70991,blicket,12,image-keyboard-response,
463,color_on,True,1,,j,on,,0.0-10.0,,j,873,dark,blicket_images/dc.jpg,73037,blicket,14,image-keyboard-response,
463,color_on,True,1,,f,off,,0.0-12.0,,f,669,dark,blicket_images/ls.jpg,74443,blicket,16,image-keyboard-response,
463,color_on,True,1,,j,on,,0.0-14.0,,j,1420,dark,blicket_images/ds.jpg,76308,blicket,18,image-keyboard-response,
463,color_on,True,1,,f,off,,0.0-16.0,,f,822,dark,blicket_images/lc.jpg,77788,blicket,20,image-keyboard-response,
463,color_on,True,1,,j,on,,0.0-18.0,,j,393,dark,blicket_images/ds.jpg,78782,blicket,22,image-keyboard-response,
463,color_on,True,1,,j,on,,0.0-20.0,,j,796,dark,blicket_images/dc.jpg,80046,blicket,24,image-keyboard-response,
463,color_on,True,1,,f,off,,0.0-22.0,,f,770,dark,blicket_images/lc.jpg,81153,blicket,26,image-keyboard-response,
463,color_on,True,1,,f,off,,0.0-24.0,,f,616,dark,blicket_images/ls.jpg,82181,blicket,28,image-keyboard-response,
463,color_on,True,1,,f,off,,0.0-26.0,,f,1034,dark,blicket_images/lc.jpg,83687,blicket,30,image-keyboard-response,
463,color_on,True,1,,j,on,,0.0-28.0,,j,451,dark,blicket_images/ds.jpg,84650,blicket,32,image-keyboard-response,
463,color_on,True,1,,j,on,,0.0-30.0,,j,504,dark,blicket_images/dc.jpg,85519,blicket,34,image-keyboard-response,
463,color_on,True,1,,f,off,,0.0-32.0,,f,565,dark,blicket_images/lc.jpg,86408,blicket,36,image-keyboard-response,
463,color_on,True,1,,f,off,,0.0-34.0,,f,1327,dark,blicket_images/ls.jpg,88637,blicket,38,image-keyboard-response,
463,color_on,True,1,,j,on,,0.0-36.0,,j,421,dark,blicket_images/ds.jpg,89391,blicket,40,image-keyboard-response,
463,color_on,True,1,blicket_images/ds.jpg,,ds,blicket_images/ds.jpg,0.0-38.0,,ds,7633,dark,"Which of these options shows the image from the last trial, that you just saw?",97536,pop_quiz,42,html-button-response,
463,color_on,True,1,,,"['dc', 'ds']",,0.0-39.0,[0],"['dc', 'ds']",6121,dark,,103667,rule_question,43,survey-multi-select,
407,color_on,True,1,,j,on,,0.0-6.0,,j,10004,dark,blicket_images/dc.jpg,1154685,blicket,10,image-keyboard-response,
407,color_on,True,1,,f,off,,0.0-8.0,,f,2921,dark,blicket_images/lc.jpg,1159700,blicket,12,image-keyboard-response,
407,color_on,True,1,,f,off,,0.0-10.0,,f,2685,dark,blicket_images/ls.jpg,1164844,blicket,14,image-keyboard-response,
407,color_on,True,1,,j,on,,0.0-12.0,,j,2320,dark,blicket_images/dc.jpg,1168711,blicket,16,image-keyboard-response,
407,color_on,True,1,,f,off,,0.0-14.0,,f,3230,dark,blicket_images/lc.jpg,1173308,blicket,18,image-keyboard-response,
407,color_on,True,1,,j,on,,0.0-16.0,,j,2004,dark,blicket_images/ds.jpg,1176633,blicket,20,image-keyboard-response,
407,color_on,True,1,,f,off,,0.0-18.0,,f,1592,dark,blicket_images/ls.jpg,1179500,blicket,22,image-keyboard-response,
407,color_on,True,1,,j,on,,0.0-20.0,,j,1684,dark,blicket_images/dc.jpg,1182369,blicket,24,image-keyboard-response,
407,color_on,True,1,,j,on,,0.0-22.0,,j,2139,dark,blicket_images/ds.jpg,1185465,blicket,26,image-keyboard-response,
407,color_on,True,1,,f,off,,0.0-24.0,,f,1319,dark,blicket_images/ls.jpg,1187970,blicket,28,image-keyboard-response,
407,color_on,True,1,,f,off,,0.0-26.0,,f,2002,dark,blicket_images/lc.jpg,1190702,blicket,30,image-keyboard-response,
407,color_on,True,1,,j,on,,0.0-28.0,,j,3447,dark,blicket_images/ds.jpg,1195162,blicket,32,image-keyboard-response,
407,color_on,True,1,,f,off,,0.0-30.0,,f,3960,dark,blicket_images/ls.jpg,1200171,blicket,34,image-keyboard-response,
407,color_on,True,1,,j,on,,0.0-32.0,,j,3502,dark,blicket_images/dc.jpg,1204584,blicket,36,image-keyboard-response,
407,color_on,True,1,,f,off,,0.0-34.0,,f,1320,dark,blicket_images/ls.jpg,1206954,blicket,38,image-keyboard-response,
407,color_on,True,1,,j,on,,0.0-36.0,,j,1365,dark,blicket_images/dc.jpg,1209277,blicket,40,image-keyboard-response,
407,color_on,True,1,blicket_images/dc.jpg,,dc,blicket_images/dc.jpg,0.0-38.0,,dc,9987,dark,"Which of these options shows the image from the last trial, that you just saw?",1220361,pop_quiz,42,html-button-response,
407,color_on,True,1,,,"['dc', 'ds']",,0.0-39.0,[0],"['dc', 'ds']",7379,dark,,1227746,rule_question,43,survey-multi-select,
454,color_on,False,0,,f,off,,0.0-6.0,,j,3247,light,blicket_images/dc.jpg,95700,blicket,16,image-keyboard-response,
454,color_on,True,1,,j,on,,0.0-8.0,,j,1734,light,blicket_images/ls.jpg,98856,blicket,18,image-keyboard-response,
454,color_on,True,1,,f,off,,0.0-10.0,,f,987,light,blicket_images/ds.jpg,101381,blicket,20,image-keyboard-response,
454,color_on,True,1,,f,off,,0.0-12.0,,f,1779,light,blicket_images/dc.jpg,103960,blicket,22,image-keyboard-response,
454,color_on,True,1,,j,on,,0.0-14.0,,j,800,light,blicket_images/lc.jpg,105447,blicket,24,image-keyboard-response,
454,color_on,True,1,,f,off,,0.0-16.0,,f,962,light,blicket_images/dc.jpg,107292,blicket,26,image-keyboard-response,
454,color_on,True,1,,j,on,,0.0-18.0,,j,853,light,blicket_images/ls.jpg,108771,blicket,28,image-keyboard-response,
454,color_on,True,1,,f,off,,0.0-20.0,,f,1436,light,blicket_images/ds.jpg,111637,blicket,30,image-keyboard-response,
454,color_on,True,1,,j,on,,0.0-22.0,,j,816,light,blicket_images/ls.jpg,113158,blicket,32,image-keyboard-response,
454,color_on,True,1,,j,on,,0.0-24.0,,j,755,light,blicket_images/lc.jpg,114547,blicket,34,image-keyboard-response,
454,color_on,True,1,,f,off,,0.0-26.0,,f,893,light,blicket_images/dc.jpg,115920,blicket,36,image-keyboard-response,
454,color_on,True,1,,j,on,,0.0-28.0,,j,938,light,blicket_images/ls.jpg,117488,blicket,38,image-keyboard-response,
454,color_on,True,1,,j,on,,0.0-30.0,,j,886,light,blicket_images/lc.jpg,118883,blicket,40,image-keyboard-response,
454,color_on,True,1,,f,off,,0.0-32.0,,f,723,light,blicket_images/ds.jpg,120073,blicket,42,image-keyboard-response,
454,color_on,True,1,,f,off,,0.0-34.0,,f,770,light,blicket_images/dc.jpg,121401,blicket,44,image-keyboard-response,
454,color_on,True,1,,j,on,,0.0-36.0,,j,782,light,blicket_images/ls.jpg,122782,blicket,46,image-keyboard-response,
454,color_on,False,0,blicket_images/ls.jpg,,ls,blicket_images/lc.jpg,0.0-38.0,,lc,2940,light,"Which of these options shows the image from the last trial, that you just saw?",126164,pop_quiz,48,html-button-response,
454,color_on,True,1,,,"['lc', 'ls']",,0.0-39.0,[0],"['lc', 'ls']",4420,light,,130589,rule_question,49,survey-multi-select,
440,color_on,True,1,,j,on,,0.0-6.0,,j,3976,light,blicket_images/ls.jpg,72727,blicket,10,image-keyboard-response,
440,color_on,True,1,,f,off,,0.0-8.0,,f,1914,light,blicket_images/dc.jpg,76365,blicket,12,image-keyboard-response,
440,color_on,True,1,,j,on,,0.0-10.0,,j,1338,light,blicket_images/ls.jpg,79151,blicket,14,image-keyboard-response,
440,color_on,False,0,,f,off,,0.0-12.0,,j,1109,light,blicket_images/ds.jpg,81129,blicket,16,image-keyboard-response,
440,color_on,False,0,,j,on,,0.0-14.0,,f,1989,light,blicket_images/lc.jpg,84117,blicket,18,image-keyboard-response,
440,color_on,True,1,,f,off,,0.0-16.0,,f,2968,light,blicket_images/dc.jpg,88575,blicket,20,image-keyboard-response,
440,color_on,True,1,,j,on,,0.0-18.0,,j,1862,light,blicket_images/lc.jpg,91361,blicket,22,image-keyboard-response,
440,color_on,True,1,,j,on,,0.0-20.0,,j,1210,light,blicket_images/ls.jpg,93263,blicket,24,image-keyboard-response,
440,color_on,True,1,,f,off,,0.0-22.0,,f,1078,light,blicket_images/dc.jpg,94992,blicket,26,image-keyboard-response,
440,color_on,True,1,,j,on,,0.0-24.0,,j,1028,light,blicket_images/lc.jpg,96689,blicket,28,image-keyboard-response,
440,color_on,True,1,,f,off,,0.0-26.0,,f,1092,light,blicket_images/ds.jpg,98433,blicket,30,image-keyboard-response,
440,color_on,True,1,,j,on,,0.0-28.0,,j,932,light,blicket_images/ls.jpg,99978,blicket,32,image-keyboard-response,
440,color_on,True,1,,f,off,,0.0-30.0,,f,1025,light,blicket_images/ds.jpg,101552,blicket,34,image-keyboard-response,
440,color_on,True,1,,j,on,,0.0-32.0,,j,1523,light,blicket_images/lc.jpg,103673,blicket,36,image-keyboard-response,
440,color_on,True,1,,f,off,,0.0-34.0,,f,876,light,blicket_images/ds.jpg,105074,blicket,38,image-keyboard-response,
440,color_on,True,1,,j,on,,0.0-36.0,,j,724,light,blicket_images/lc.jpg,106377,blicket,40,image-keyboard-response,
440,color_on,True,1,blicket_images/lc.jpg,,lc,blicket_images/lc.jpg,0.0-38.0,,lc,5663,light,"Which of these options shows the image from the last trial, that you just saw?",112556,pop_quiz,42,html-button-response,
440,color_on,True,1,,,"['lc', 'ls']",,0.0-39.0,[0],"['lc', 'ls']",5078,light,,117637,rule_question,43,survey-multi-select,
356,color_on,False,0,,j,on,,0.0-6.0,,f,3204,dark,blicket_images/dc.jpg,39604,blicket,10,image-keyboard-response,
356,color_on,False,0,,f,off,,0.0-8.0,,j,1865,dark,blicket_images/ls.jpg,42454,blicket,12,image-keyboard-response,
356,color_on,True,1,,f,off,,0.0-10.0,,f,1354,dark,blicket_images/lc.jpg,44682,blicket,14,image-keyboard-response,
356,color_on,False,0,,j,on,,0.0-12.0,,f,1342,dark,blicket_images/dc.jpg,46469,blicket,16,image-keyboard-response,
356,color_on,False,0,,f,off,,0.0-14.0,,j,431,dark,blicket_images/lc.jpg,47608,blicket,18,image-keyboard-response,
356,color_on,False,0,,f,off,,0.0-16.0,,j,472,dark,blicket_images/ls.jpg,48552,blicket,20,image-keyboard-response,
356,color_on,True,1,,j,on,,0.0-18.0,,j,339,dark,blicket_images/ds.jpg,49295,blicket,22,image-keyboard-response,
356,color_on,True,1,,j,on,,0.0-20.0,,j,350,dark,blicket_images/dc.jpg,50033,blicket,24,image-keyboard-response,
356,color_on,False,0,,f,off,,0.0-22.0,,j,348,dark,blicket_images/lc.jpg,50809,blicket,26,image-keyboard-response,
356,color_on,False,0,,j,on,,0.0-24.0,,f,300,dark,blicket_images/ds.jpg,51544,blicket,28,image-keyboard-response,
356,color_on,False,0,,j,on,,0.0-26.0,,f,333,dark,blicket_images/dc.jpg,52304,blicket,30,image-keyboard-response,
356,color_on,False,0,,f,off,,0.0-28.0,,j,247,dark,blicket_images/ls.jpg,52906,blicket,32,image-keyboard-response,
356,color_on,False,0,,j,on,,0.0-30.0,,f,233,dark,blicket_images/ds.jpg,53752,blicket,34,image-keyboard-response,
356,color_on,False,0,,f,off,,0.0-32.0,,j,307,dark,blicket_images/lc.jpg,54437,blicket,36,image-keyboard-response,
356,color_on,True,1,,f,off,,0.0-34.0,,f,259,dark,blicket_images/ls.jpg,55157,blicket,38,image-keyboard-response,
356,color_on,False,0,,j,on,,0.0-36.0,,f,640,dark,blicket_images/ds.jpg,56453,blicket,40,image-keyboard-response,
356,color_on,True,1,blicket_images/ds.jpg,,ds,blicket_images/ds.jpg,0.0-38.0,,ds,3749,dark,"Which of these options shows the image from the last trial, that you just saw?",60692,pop_quiz,42,html-button-response,
356,color_on,False,0,,,"['dc', 'ds']",,0.0-39.0,[0],"['ds', 'lc']",7170,dark,,67871,rule_question,43,survey-multi-select,
393,color_on,False,0,,f,off,,0.0-6.0,,j,6027,dark,blicket_images/lc.jpg,144177,blicket,10,image-keyboard-response,
393,color_on,True,1,,j,on,,0.0-8.0,,j,3294,dark,blicket_images/dc.jpg,149972,blicket,12,image-keyboard-response,
393,color_on,False,0,,j,on,,0.0-10.0,,f,2447,dark,blicket_images/ds.jpg,153887,blicket,14,image-keyboard-response,
393,color_on,False,0,,f,off,,0.0-12.0,,j,1889,dark,blicket_images/ls.jpg,157826,blicket,16,image-keyboard-response,
393,color_on,True,1,,j,on,,0.0-14.0,,j,5882,dark,blicket_images/ds.jpg,164748,blicket,18,image-keyboard-response,
393,color_on,False,0,,f,off,,0.0-16.0,,j,1818,dark,blicket_images/ls.jpg,167473,blicket,20,image-keyboard-response,
393,color_on,True,1,,j,on,,0.0-18.0,,j,3009,dark,blicket_images/dc.jpg,172387,blicket,22,image-keyboard-response,
393,color_on,True,1,,f,off,,0.0-20.0,,f,1309,dark,blicket_images/lc.jpg,174922,blicket,24,image-keyboard-response,
393,color_on,True,1,,j,on,,0.0-22.0,,j,1019,dark,blicket_images/dc.jpg,176921,blicket,26,image-keyboard-response,
393,color_on,True,1,,j,on,,0.0-24.0,,j,968,dark,blicket_images/ds.jpg,179035,blicket,28,image-keyboard-response,
393,color_on,True,1,,f,off,,0.0-26.0,,f,817,dark,blicket_images/lc.jpg,180476,blicket,30,image-keyboard-response,
393,color_on,True,1,,f,off,,0.0-28.0,,f,736,dark,blicket_images/ls.jpg,181860,blicket,32,image-keyboard-response,
393,color_on,True,1,,j,on,,0.0-30.0,,j,913,dark,blicket_images/dc.jpg,183331,blicket,34,image-keyboard-response,
393,color_on,True,1,,f,off,,0.0-32.0,,f,3028,dark,blicket_images/ls.jpg,187231,blicket,36,image-keyboard-response,
393,color_on,True,1,,f,off,,0.0-34.0,,f,3565,dark,blicket_images/lc.jpg,192142,blicket,38,image-keyboard-response,
393,color_on,True,1,,j,on,,0.0-36.0,,j,914,dark,blicket_images/dc.jpg,194226,blicket,40,image-keyboard-response,
393,color_on,False,0,blicket_images/dc.jpg,,dc,blicket_images/lc.jpg,0.0-38.0,,lc,17267,dark,"Which of these options shows the image from the last trial, that you just saw?",212241,pop_quiz,42,html-button-response,
393,color_on,True,1,,,"['dc', 'ds']",,0.0-39.0,[0],"['dc', 'ds']",9143,dark,,221394,rule_question,43,survey-multi-select,
450,color_on,True,1,,j,on,,0.0-6.0,,j,4311,light,blicket_images/lc.jpg,197331,blicket,10,image-keyboard-response,
450,color_on,True,1,,f,off,,0.0-8.0,,f,3133,light,blicket_images/dc.jpg,203322,blicket,12,image-keyboard-response,
450,color_on,True,1,,f,off,,0.0-10.0,,f,3990,light,blicket_images/ds.jpg,208962,blicket,14,image-keyboard-response,
450,color_on,True,1,,j,on,,0.0-12.0,,j,1421,light,blicket_images/lc.jpg,211930,blicket,16,image-keyboard-response,
450,color_on,False,0,,j,on,,0.0-14.0,,f,3239,light,blicket_images/ls.jpg,216210,blicket,18,image-keyboard-response,
450,color_on,False,0,,f,off,,0.0-16.0,,j,2246,light,blicket_images/dc.jpg,219658,blicket,20,image-keyboard-response,
450,color_on,True,1,,j,on,,0.0-18.0,,j,4158,light,blicket_images/lc.jpg,225002,blicket,22,image-keyboard-response,
450,color_on,True,1,,j,on,,0.0-20.0,,j,1711,light,blicket_images/ls.jpg,227642,blicket,24,image-keyboard-response,
450,color_on,True,1,,f,off,,0.0-22.0,,f,1039,light,blicket_images/ds.jpg,229522,blicket,26,image-keyboard-response,
450,color_on,True,1,,f,off,,0.0-24.0,,f,960,light,blicket_images/dc.jpg,231138,blicket,28,image-keyboard-response,
450,color_on,True,1,,f,off,,0.0-26.0,,f,999,light,blicket_images/ds.jpg,232746,blicket,30,image-keyboard-response,
450,color_on,True,1,,f,off,,0.0-28.0,,f,1015,light,blicket_images/dc.jpg,234490,blicket,32,image-keyboard-response,
450,color_on,True,1,,j,on,,0.0-30.0,,j,790,light,blicket_images/ls.jpg,235962,blicket,34,image-keyboard-response,
450,color_on,True,1,,f,off,,0.0-32.0,,f,1159,light,blicket_images/ds.jpg,237906,blicket,36,image-keyboard-response,
450,color_on,True,1,,f,off,,0.0-34.0,,f,735,light,blicket_images/dc.jpg,239466,blicket,38,image-keyboard-response,
450,color_on,True,1,,j,on,,0.0-36.0,,j,663,light,blicket_images/lc.jpg,240874,blicket,40,image-keyboard-response,
450,color_on,True,1,blicket_images/lc.jpg,,lc,blicket_images/lc.jpg,0.0-38.0,,lc,17171,light,"Which of these options shows the image from the last trial, that you just saw?",259072,pop_quiz,42,html-button-response,
450,color_on,True,1,,,"['lc', 'ls']",,0.0-39.0,[0],"['lc', 'ls']",8781,light,,267858,rule_question,43,survey-multi-select,
380,color_on,True,1,,f,off,,0.0-6.0,,f,4416,dark,blicket_images/ls.jpg,80836,blicket,10,image-keyboard-response,
380,color_on,True,1,,f,off,,0.0-8.0,,f,1961,dark,blicket_images/lc.jpg,86588,blicket,12,image-keyboard-response,
380,color_on,True,1,,j,on,,0.0-10.0,,j,1369,dark,blicket_images/dc.jpg,91651,blicket,14,image-keyboard-response,
380,color_on,True,1,,f,off,,0.0-12.0,,f,973,dark,blicket_images/ls.jpg,94953,blicket,16,image-keyboard-response,
380,color_on,True,1,,j,on,,0.0-14.0,,j,810,dark,blicket_images/dc.jpg,96991,blicket,18,image-keyboard-response,
380,color_on,True,1,,j,on,,0.0-16.0,,j,816,dark,blicket_images/ds.jpg,99076,blicket,20,image-keyboard-response,
380,color_on,True,1,,j,on,,0.0-18.0,,j,729,dark,blicket_images/dc.jpg,100699,blicket,22,image-keyboard-response,
380,color_on,True,1,,f,off,,0.0-20.0,,f,644,dark,blicket_images/lc.jpg,101944,blicket,24,image-keyboard-response,
380,color_on,True,1,,j,on,,0.0-22.0,,j,652,dark,blicket_images/ds.jpg,103200,blicket,26,image-keyboard-response,
380,color_on,True,1,,j,on,,0.0-24.0,,j,1111,dark,blicket_images/dc.jpg,104834,blicket,28,image-keyboard-response,
380,color_on,True,1,,f,off,,0.0-26.0,,f,883,dark,blicket_images/ls.jpg,106307,blicket,30,image-keyboard-response,
380,color_on,True,1,,j,on,,0.0-28.0,,j,605,dark,blicket_images/ds.jpg,107552,blicket,32,image-keyboard-response,
380,color_on,True,1,,f,off,,0.0-30.0,,f,625,dark,blicket_images/lc.jpg,108742,blicket,34,image-keyboard-response,
380,color_on,True,1,,f,off,,0.0-32.0,,f,595,dark,blicket_images/ls.jpg,109872,blicket,36,image-keyboard-response,
380,color_on,True,1,,f,off,,0.0-34.0,,f,586,dark,blicket_images/lc.jpg,111121,blicket,38,image-keyboard-response,
380,color_on,True,1,,j,on,,0.0-36.0,,j,793,dark,blicket_images/ds.jpg,112415,blicket,40,image-keyboard-response,
380,color_on,True,1,blicket_images/ds.jpg,,ds,blicket_images/ds.jpg,0.0-38.0,,ds,8281,dark,"Which of these options shows the image from the last trial, that you just saw?",121266,pop_quiz,42,html-button-response,
380,color_on,True,1,,,"['dc', 'ds']",,0.0-39.0,[0],"['dc', 'ds']",7736,dark,,129009,rule_question,43,survey-multi-select,
437,shape_off,False,0,,f,off,,0.0-6.0,,j,4507,cube,blicket_images/dc.jpg,110616,blicket,10,image-keyboard-response,
437,shape_off,True,1,,j,on,,0.0-8.0,,j,4535,cube,blicket_images/ls.jpg,117136,blicket,12,image-keyboard-response,
437,shape_off,True,1,,j,on,,0.0-10.0,,j,2911,cube,blicket_images/ds.jpg,124497,blicket,14,image-keyboard-response,
437,shape_off,True,1,,j,on,,0.0-12.0,,j,2799,cube,blicket_images/ls.jpg,130008,blicket,16,image-keyboard-response,
437,shape_off,True,1,,f,off,,0.0-14.0,,f,3711,cube,blicket_images/lc.jpg,135505,blicket,18,image-keyboard-response,
437,shape_off,True,1,,f,off,,0.0-16.0,,f,3199,cube,blicket_images/dc.jpg,144305,blicket,20,image-keyboard-response,
437,shape_off,True,1,,j,on,,0.0-18.0,,j,2855,cube,blicket_images/ds.jpg,149209,blicket,22,image-keyboard-response,
437,shape_off,True,1,,j,on,,0.0-20.0,,j,2662,cube,blicket_images/ls.jpg,153248,blicket,24,image-keyboard-response,
437,shape_off,True,1,,f,off,,0.0-22.0,,f,1943,cube,blicket_images/lc.jpg,156224,blicket,26,image-keyboard-response,
437,shape_off,True,1,,j,on,,0.0-24.0,,j,3135,cube,blicket_images/ds.jpg,160297,blicket,28,image-keyboard-response,
437,shape_off,True,1,,f,off,,0.0-26.0,,f,2101,cube,blicket_images/dc.jpg,163633,blicket,30,image-keyboard-response,
437,shape_off,True,1,,f,off,,0.0-28.0,,f,3551,cube,blicket_images/lc.jpg,168369,blicket,32,image-keyboard-response,
437,shape_off,True,1,,j,on,,0.0-30.0,,j,2063,cube,blicket_images/ls.jpg,171392,blicket,34,image-keyboard-response,
437,shape_off,True,1,,f,off,,0.0-32.0,,f,2327,cube,blicket_images/dc.jpg,174617,blicket,36,image-keyboard-response,
437,shape_off,True,1,,j,on,,0.0-34.0,,j,2324,cube,blicket_images/ls.jpg,178086,blicket,38,image-keyboard-response,
437,shape_off,True,1,,f,off,,0.0-36.0,,f,2199,cube,blicket_images/dc.jpg,181153,blicket,40,image-keyboard-response,
437,shape_off,False,0,blicket_images/dc.jpg,,dc,blicket_images/ls.jpg,0.0-38.0,,ls,9871,cube,"Which of these options shows the image from the last trial, that you just saw?",192144,pop_quiz,42,html-button-response,
437,shape_off,True,1,,,"['ds', 'ls']",,0.0-39.0,[0],"['ds', 'ls']",10412,cube,,202574,rule_question,43,survey-multi-select,
367,shape_off,True,1,,j,on,,0.0-6.0,,j,2841,cube,blicket_images/ds.jpg,105830,blicket,10,image-keyboard-response,
367,shape_off,True,1,,j,on,,0.0-8.0,,j,3898,cube,blicket_images/ls.jpg,121814,blicket,12,image-keyboard-response,
367,shape_off,True,1,,j,on,,0.0-10.0,,j,2796,cube,blicket_images/ds.jpg,134957,blicket,14,image-keyboard-response,
367,shape_off,True,1,,f,off,,0.0-12.0,,f,2444,cube,blicket_images/dc.jpg,138615,blicket,16,image-keyboard-response,
367,shape_off,True,1,,f,off,,0.0-14.0,,f,2011,cube,blicket_images/lc.jpg,155027,blicket,18,image-keyboard-response,
367,shape_off,True,1,,f,off,,0.0-16.0,,f,3777,cube,blicket_images/dc.jpg,169052,blicket,20,image-keyboard-response,
367,shape_off,True,1,,j,on,,0.0-18.0,,j,2479,cube,blicket_images/ls.jpg,172570,blicket,22,image-keyboard-response,
367,shape_off,True,1,,f,off,,0.0-20.0,,f,3112,cube,blicket_images/dc.jpg,176799,blicket,24,image-keyboard-response,
367,shape_off,True,1,,j,on,,0.0-22.0,,j,3147,cube,blicket_images/ds.jpg,181177,blicket,26,image-keyboard-response,
367,shape_off,True,1,,f,off,,0.0-24.0,,f,1958,cube,blicket_images/lc.jpg,184185,blicket,28,image-keyboard-response,
367,shape_off,True,1,,j,on,,0.0-26.0,,j,2670,cube,blicket_images/ls.jpg,187795,blicket,30,image-keyboard-response,
367,shape_off,True,1,,j,on,,0.0-28.0,,j,1550,cube,blicket_images/ds.jpg,190226,blicket,32,image-keyboard-response,
367,shape_off,True,1,,f,off,,0.0-30.0,,f,1099,cube,blicket_images/lc.jpg,192646,blicket,34,image-keyboard-response,
367,shape_off,True,1,,j,on,,0.0-32.0,,j,1791,cube,blicket_images/ls.jpg,195403,blicket,36,image-keyboard-response,
367,shape_off,True,1,,j,on,,0.0-34.0,,j,1959,cube,blicket_images/ds.jpg,199604,blicket,38,image-keyboard-response,
367,shape_off,True,1,,f,off,,0.0-36.0,,f,1507,cube,blicket_images/dc.jpg,202719,blicket,40,image-keyboard-response,
367,shape_off,True,1,blicket_images/dc.jpg,,dc,blicket_images/dc.jpg,0.0-38.0,,dc,9151,cube,"Which of these options shows the image from the last trial, that you just saw?",212911,pop_quiz,42,html-button-response,
367,shape_off,True,1,,,"['ds', 'ls']",,0.0-39.0,[0],"['ds', 'ls']",12794,cube,,225713,rule_question,43,survey-multi-select,
375,shape_off,True,1,,j,on,,0.0-6.0,,j,3491,cube,blicket_images/ds.jpg,84555,blicket,16,image-keyboard-response,
375,shape_off,True,1,,f,off,,0.0-8.0,,f,1158,cube,blicket_images/dc.jpg,86856,blicket,18,image-keyboard-response,
375,shape_off,False,0,,f,off,,0.0-10.0,,j,1246,cube,blicket_images/lc.jpg,88997,blicket,20,image-keyboard-response,
375,shape_off,True,1,,j,on,,0.0-12.0,,j,1680,cube,blicket_images/ds.jpg,91452,blicket,22,image-keyboard-response,
375,shape_off,True,1,,f,off,,0.0-14.0,,f,1006,cube,blicket_images/dc.jpg,93110,blicket,24,image-keyboard-response,
375,shape_off,True,1,,j,on,,0.0-16.0,,j,808,cube,blicket_images/ls.jpg,94626,blicket,26,image-keyboard-response,
375,shape_off,True,1,,f,off,,0.0-18.0,,f,598,cube,blicket_images/dc.jpg,95787,blicket,28,image-keyboard-response,
375,shape_off,True,1,,f,off,,0.0-20.0,,f,2140,cube,blicket_images/lc.jpg,98555,blicket,30,image-keyboard-response,
375,shape_off,True,1,,f,off,,0.0-22.0,,f,874,cube,blicket_images/dc.jpg,99914,blicket,32,image-keyboard-response,
375,shape_off,True,1,,j,on,,0.0-24.0,,j,1106,cube,blicket_images/ls.jpg,101456,blicket,34,image-keyboard-response,
375,shape_off,True,1,,f,off,,0.0-26.0,,f,812,cube,blicket_images/lc.jpg,102808,blicket,36,image-keyboard-response,
375,shape_off,True,1,,j,on,,0.0-28.0,,j,1093,cube,blicket_images/ls.jpg,104348,blicket,38,image-keyboard-response,
375,shape_off,True,1,,j,on,,0.0-30.0,,j,587,cube,blicket_images/ds.jpg,105472,blicket,40,image-keyboard-response,
375,shape_off,True,1,,f,off,,0.0-32.0,,f,760,cube,blicket_images/lc.jpg,106696,blicket,42,image-keyboard-response,
375,shape_off,True,1,,f,off,,0.0-34.0,,f,656,cube,blicket_images/dc.jpg,107761,blicket,44,image-keyboard-response,
375,shape_off,True,1,,f,off,,0.0-36.0,,f,1026,cube,blicket_images/lc.jpg,109030,blicket,46,image-keyboard-response,
375,shape_off,True,1,blicket_images/lc.jpg,,lc,blicket_images/lc.jpg,0.0-38.0,,lc,2876,cube,"Which of these options shows the image from the last trial, that you just saw?",112392,pop_quiz,48,html-button-response,
375,shape_off,True,1,,,"['ds', 'ls']",,0.0-39.0,[0],"['ds', 'ls']",6413,cube,,118808,rule_question,49,survey-multi-select,
379,shape_off,False,0,,f,off,,0.0-6.0,,j,3240,cube,blicket_images/dc.jpg,249172,blicket,16,image-keyboard-response,
379,shape_off,False,0,,f,off,,0.0-8.0,,j,983,cube,blicket_images/lc.jpg,251224,blicket,18,image-keyboard-response,
379,shape_off,True,1,,j,on,,0.0-10.0,,j,903,cube,blicket_images/ls.jpg,252856,blicket,20,image-keyboard-response,
379,shape_off,True,1,,j,on,,0.0-12.0,,j,463,cube,blicket_images/ds.jpg,254120,blicket,22,image-keyboard-response,
379,shape_off,True,1,,f,off,,0.0-14.0,,f,2352,cube,blicket_images/dc.jpg,256938,blicket,24,image-keyboard-response,
379,shape_off,True,1,,j,on,,0.0-16.0,,j,2233,cube,blicket_images/ls.jpg,259965,blicket,26,image-keyboard-response,
379,shape_off,True,1,,j,on,,0.0-18.0,,j,887,cube,blicket_images/ds.jpg,261236,blicket,28,image-keyboard-response,
379,shape_off,True,1,,j,on,,0.0-20.0,,j,1336,cube,blicket_images/ls.jpg,263581,blicket,30,image-keyboard-response,
379,shape_off,True,1,,f,off,,0.0-22.0,,f,663,cube,blicket_images/lc.jpg,265662,blicket,32,image-keyboard-response,
379,shape_off,True,1,,j,on,,0.0-24.0,,j,608,cube,blicket_images/ls.jpg,266719,blicket,34,image-keyboard-response,
379,shape_off,True,1,,f,off,,0.0-26.0,,f,679,cube,blicket_images/dc.jpg,267735,blicket,36,image-keyboard-response,
379,shape_off,True,1,,j,on,,0.0-28.0,,j,512,cube,blicket_images/ds.jpg,268624,blicket,38,image-keyboard-response,
379,shape_off,True,1,,f,off,,0.0-30.0,,f,623,cube,blicket_images/lc.jpg,269488,blicket,40,image-keyboard-response,
379,shape_off,True,1,,f,off,,0.0-32.0,,f,559,cube,blicket_images/dc.jpg,270321,blicket,42,image-keyboard-response,
379,shape_off,True,1,,f,off,,0.0-34.0,,f,595,cube,blicket_images/lc.jpg,271233,blicket,44,image-keyboard-response,
379,shape_off,True,1,,f,off,,0.0-36.0,,f,887,cube,blicket_images/dc.jpg,272417,blicket,46,image-keyboard-response,
379,shape_off,True,1,blicket_images/dc.jpg,,dc,blicket_images/dc.jpg,0.0-38.0,,dc,3378,cube,"Which of these options shows the image from the last trial, that you just saw?",275967,pop_quiz,48,html-button-response,
379,shape_off,True,1,,,"['ds', 'ls']",,0.0-39.0,[0],"['ds', 'ls']",5274,cube,,281247,rule_question,49,survey-multi-select,
401,shape_off,True,1,,j,on,,0.0-6.0,,j,5690,cube,blicket_images/ds.jpg,122587,blicket,10,image-keyboard-response,
401,shape_off,False,0,,f,off,,0.0-8.0,,j,2602,cube,blicket_images/dc.jpg,126360,blicket,12,image-keyboard-response,
401,shape_off,True,1,,j,on,,0.0-10.0,,j,1665,cube,blicket_images/ls.jpg,130473,blicket,14,image-keyboard-response,
401,shape_off,False,0,,f,off,,0.0-12.0,,j,2235,cube,blicket_images/lc.jpg,134716,blicket,16,image-keyboard-response,
401,shape_off,True,1,,j,on,,0.0-14.0,,j,948,cube,blicket_images/ls.jpg,138379,blicket,18,image-keyboard-response,
401,shape_off,True,1,,j,on,,0.0-16.0,,j,787,cube,blicket_images/ds.jpg,140226,blicket,20,image-keyboard-response,
401,shape_off,True,1,,f,off,,0.0-18.0,,f,1824,cube,blicket_images/lc.jpg,142829,blicket,22,image-keyboard-response,
401,shape_off,False,0,,f,off,,0.0-20.0,,j,1518,cube,blicket_images/dc.jpg,145418,blicket,24,image-keyboard-response,
401,shape_off,True,1,,f,off,,0.0-22.0,,f,2339,cube,blicket_images/lc.jpg,148901,blicket,26,image-keyboard-response,
401,shape_off,True,1,,j,on,,0.0-24.0,,j,915,cube,blicket_images/ls.jpg,150682,blicket,28,image-keyboard-response,
401,shape_off,True,1,,j,on,,0.0-26.0,,j,763,cube,blicket_images/ds.jpg,152351,blicket,30,image-keyboard-response,
401,shape_off,True,1,,j,on,,0.0-28.0,,j,549,cube,blicket_images/ls.jpg,153707,blicket,32,image-keyboard-response,
401,shape_off,True,1,,f,off,,0.0-30.0,,f,686,cube,blicket_images/dc.jpg,155148,blicket,34,image-keyboard-response,
401,shape_off,True,1,,j,on,,0.0-32.0,,j,1203,cube,blicket_images/ds.jpg,157420,blicket,36,image-keyboard-response,
401,shape_off,True,1,,f,off,,0.0-34.0,,f,704,cube,blicket_images/dc.jpg,159554,blicket,38,image-keyboard-response,
401,shape_off,True,1,,f,off,,0.0-36.0,,f,918,cube,blicket_images/lc.jpg,160980,blicket,40,image-keyboard-response,
401,shape_off,False,0,blicket_images/lc.jpg,,lc,blicket_images/ds.jpg,0.0-38.0,,ds,6288,cube,"Which of these options shows the image from the last trial, that you just saw?",167986,pop_quiz,42,html-button-response,
401,shape_off,True,1,,,"['ds', 'ls']",,0.0-39.0,[0],"['ds', 'ls']",6576,cube,,174574,rule_question,43,survey-multi-select,
433,shape_off,False,0,,j,on,,0.0-6.0,,f,3052,cube,blicket_images/ds.jpg,119462,blicket,16,image-keyboard-response,
433,shape_off,True,1,,f,off,,0.0-8.0,,f,5521,cube,blicket_images/lc.jpg,126593,blicket,18,image-keyboard-response,
433,shape_off,False,0,,f,off,,0.0-10.0,,j,2326,cube,blicket_images/dc.jpg,130627,blicket,20,image-keyboard-response,
433,shape_off,False,0,,j,on,,0.0-12.0,,f,6048,cube,blicket_images/ds.jpg,138335,blicket,22,image-keyboard-response,
433,shape_off,True,1,,f,off,,0.0-14.0,,f,1851,cube,blicket_images/dc.jpg,141795,blicket,24,image-keyboard-response,
433,shape_off,False,0,,f,off,,0.0-16.0,,j,5135,cube,blicket_images/lc.jpg,148501,blicket,26,image-keyboard-response,
433,shape_off,True,1,,j,on,,0.0-18.0,,j,2475,cube,blicket_images/ls.jpg,152147,blicket,28,image-keyboard-response,
433,shape_off,False,0,,j,on,,0.0-20.0,,f,3011,cube,blicket_images/ds.jpg,157238,blicket,30,image-keyboard-response,
433,shape_off,True,1,,f,off,,0.0-22.0,,f,5890,cube,blicket_images/dc.jpg,164787,blicket,32,image-keyboard-response,
433,shape_off,False,0,,j,on,,0.0-24.0,,f,7801,cube,blicket_images/ls.jpg,174245,blicket,34,image-keyboard-response,
433,shape_off,False,0,,f,off,,0.0-26.0,,j,4284,cube,blicket_images/lc.jpg,179593,blicket,36,image-keyboard-response,
433,shape_off,True,1,,j,on,,0.0-28.0,,j,3316,cube,blicket_images/ls.jpg,184399,blicket,38,image-keyboard-response,
433,shape_off,True,1,,j,on,,0.0-30.0,,j,4300,cube,blicket_images/ds.jpg,189857,blicket,40,image-keyboard-response,
433,shape_off,True,1,,f,off,,0.0-32.0,,f,1613,cube,blicket_images/lc.jpg,192361,blicket,42,image-keyboard-response,
433,shape_off,True,1,,j,on,,0.0-34.0,,j,1691,cube,blicket_images/ls.jpg,195085,blicket,44,image-keyboard-response,
433,shape_off,False,0,,f,off,,0.0-36.0,,j,1053,cube,blicket_images/dc.jpg,196793,blicket,46,image-keyboard-response,
433,shape_off,True,1,blicket_images/dc.jpg,,dc,blicket_images/dc.jpg,0.0-38.0,,dc,6123,cube,"Which of these options shows the image from the last trial, that you just saw?",204140,pop_quiz,48,html-button-response,
433,shape_off,False,0,,,"['ds', 'ls']",,0.0-39.0,[0],"['ds', 'lc', 'ls']",14801,cube,,218957,rule_question,49,survey-multi-select,
417,shape_off,False,0,,j,on,,0.0-6.0,,f,4087,cylinder,blicket_images/lc.jpg,79856,blicket,10,image-keyboard-response,
417,shape_off,False,0,,f,off,,0.0-8.0,,j,2430,cylinder,blicket_images/ls.jpg,87400,blicket,12,image-keyboard-response,
417,shape_off,True,1,,f,off,,0.0-10.0,,f,4311,cylinder,blicket_images/ds.jpg,95272,blicket,14,image-keyboard-response,
417,shape_off,True,1,,j,on,,0.0-12.0,,j,3184,cylinder,blicket_images/lc.jpg,99512,blicket,16,image-keyboard-response,
417,shape_off,True,1,,f,off,,0.0-14.0,,f,3119,cylinder,blicket_images/ds.jpg,103328,blicket,18,image-keyboard-response,
417,shape_off,True,1,,j,on,,0.0-16.0,,j,1175,cylinder,blicket_images/lc.jpg,105240,blicket,20,image-keyboard-response,
417,shape_off,True,1,,j,on,,0.0-18.0,,j,2871,cylinder,blicket_images/dc.jpg,108752,blicket,22,image-keyboard-response,
417,shape_off,True,1,,f,off,,0.0-20.0,,f,2223,cylinder,blicket_images/ds.jpg,112928,blicket,24,image-keyboard-response,
417,shape_off,True,1,,j,on,,0.0-22.0,,j,839,cylinder,blicket_images/lc.jpg,114384,blicket,26,image-keyboard-response,
417,shape_off,True,1,,j,on,,0.0-24.0,,j,2295,cylinder,blicket_images/dc.jpg,117136,blicket,28,image-keyboard-response,
417,shape_off,True,1,,f,off,,0.0-26.0,,f,942,cylinder,blicket_images/ls.jpg,118608,blicket,30,image-keyboard-response,
417,shape_off,True,1,,f,off,,0.0-28.0,,f,839,cylinder,blicket_images/ds.jpg,120328,blicket,32,image-keyboard-response,
417,shape_off,True,1,,f,off,,0.0-30.0,,f,988,cylinder,blicket_images/ls.jpg,121976,blicket,34,image-keyboard-response,
417,shape_off,True,1,,j,on,,0.0-32.0,,j,967,cylinder,blicket_images/dc.jpg,123648,blicket,36,image-keyboard-response,
417,shape_off,True,1,,f,off,,0.0-34.0,,f,2207,cylinder,blicket_images/ls.jpg,126472,blicket,38,image-keyboard-response,
417,shape_off,True,1,,f,off,,0.0-36.0,,f,887,cylinder,blicket_images/ds.jpg,127880,blicket,40,image-keyboard-response,
417,shape_off,False,0,blicket_images/ds.jpg,,ds,blicket_images/ls.jpg,0.0-38.0,,ls,3811,cylinder,"Which of these options shows the image from the last trial, that you just saw?",132216,pop_quiz,42,html-button-response,
417,shape_off,True,1,,,"['dc', 'lc']",,0.0-39.0,[0],"['dc', 'lc']",7133,cylinder,,139352,rule_question,43,survey-multi-select,
359,shape_off,False,0,,j,on,,0.0-6.0,,f,1644,cube,blicket_images/ls.jpg,58256,blicket,10,image-keyboard-response,
359,shape_off,True,1,,f,off,,0.0-8.0,,f,2039,cube,blicket_images/lc.jpg,62880,blicket,12,image-keyboard-response,
359,shape_off,False,0,,f,off,,0.0-10.0,,j,3247,cube,blicket_images/dc.jpg,69160,blicket,14,image-keyboard-response,
359,shape_off,True,1,,f,off,,0.0-12.0,,f,1236,cube,blicket_images/lc.jpg,71936,blicket,16,image-keyboard-response,
359,shape_off,True,1,,j,on,,0.0-14.0,,j,1047,cube,blicket_images/ds.jpg,73848,blicket,18,image-keyboard-response,
359,shape_off,True,1,,f,off,,0.0-16.0,,f,855,cube,blicket_images/dc.jpg,75760,blicket,20,image-keyboard-response,
359,shape_off,True,1,,j,on,,0.0-18.0,,j,735,cube,blicket_images/ds.jpg,77296,blicket,22,image-keyboard-response,
359,shape_off,True,1,,j,on,,0.0-20.0,,j,1055,cube,blicket_images/ls.jpg,78856,blicket,24,image-keyboard-response,
359,shape_off,True,1,,f,off,,0.0-22.0,,f,663,cube,blicket_images/dc.jpg,79936,blicket,26,image-keyboard-response,
359,shape_off,True,1,,j,on,,0.0-24.0,,j,639,cube,blicket_images/ds.jpg,80992,blicket,28,image-keyboard-response,
359,shape_off,True,1,,f,off,,0.0-26.0,,f,983,cube,blicket_images/lc.jpg,82424,blicket,30,image-keyboard-response,
359,shape_off,True,1,,j,on,,0.0-28.0,,j,767,cube,blicket_images/ds.jpg,83576,blicket,32,image-keyboard-response,
359,shape_off,True,1,,j,on,,0.0-30.0,,j,855,cube,blicket_images/ls.jpg,84816,blicket,34,image-keyboard-response,
359,shape_off,True,1,,f,off,,0.0-32.0,,f,607,cube,blicket_images/lc.jpg,85744,blicket,36,image-keyboard-response,
359,shape_off,True,1,,j,on,,0.0-34.0,,j,607,cube,blicket_images/ls.jpg,86672,blicket,38,image-keyboard-response,
359,shape_off,True,1,,f,off,,0.0-36.0,,f,575,cube,blicket_images/lc.jpg,87560,blicket,40,image-keyboard-response,
359,shape_off,True,1,blicket_images/lc.jpg,,lc,blicket_images/lc.jpg,0.0-38.0,,lc,7290,cube,"Which of these options shows the image from the last trial, that you just saw?",95107,pop_quiz,42,html-button-response,
359,shape_off,True,1,,,"['ds', 'ls']",,0.0-39.0,[0],"['ds', 'ls']",4672,cube,,99784,rule_question,43,survey-multi-select,
414,shape_off,True,1,,j,on,,0.0-6.0,,j,18654,cylinder,blicket_images/lc.jpg,167936,blicket,10,image-keyboard-response,
414,shape_off,True,1,,j,on,,0.0-8.0,,j,7708,cylinder,blicket_images/dc.jpg,181568,blicket,12,image-keyboard-response,
414,shape_off,True,1,,f,off,,0.0-10.0,,f,3076,cylinder,blicket_images/ds.jpg,188560,blicket,14,image-keyboard-response,
414,shape_off,True,1,,f,off,,0.0-12.0,,f,1501,cylinder,blicket_images/ls.jpg,199698,blicket,16,image-keyboard-response,
414,shape_off,True,1,,j,on,,0.0-14.0,,j,1974,cylinder,blicket_images/lc.jpg,202960,blicket,18,image-keyboard-response,
414,shape_off,True,1,,j,on,,0.0-16.0,,j,1071,cylinder,blicket_images/dc.jpg,205120,blicket,20,image-keyboard-response,
414,shape_off,True,1,,f,off,,0.0-18.0,,f,935,cylinder,blicket_images/ls.jpg,206832,blicket,22,image-keyboard-response,
414,shape_off,True,1,,f,off,,0.0-20.0,,f,1097,cylinder,blicket_images/ds.jpg,208617,blicket,24,image-keyboard-response,
414,shape_off,True,1,,j,on,,0.0-22.0,,j,1231,cylinder,blicket_images/lc.jpg,211007,blicket,26,image-keyboard-response,
414,shape_off,True,1,,f,off,,0.0-24.0,,f,1976,cylinder,blicket_images/ls.jpg,213544,blicket,28,image-keyboard-response,
414,shape_off,True,1,,j,on,,0.0-26.0,,j,1574,cylinder,blicket_images/dc.jpg,216952,blicket,30,image-keyboard-response,
414,shape_off,True,1,,f,off,,0.0-28.0,,f,1007,cylinder,blicket_images/ds.jpg,218568,blicket,32,image-keyboard-response,
414,shape_off,True,1,,j,on,,0.0-30.0,,j,1095,cylinder,blicket_images/dc.jpg,220289,blicket,34,image-keyboard-response,
414,shape_off,True,1,,j,on,,0.0-32.0,,j,2639,cylinder,blicket_images/lc.jpg,223424,blicket,36,image-keyboard-response,
414,shape_off,True,1,,j,on,,0.0-34.0,,j,1151,cylinder,blicket_images/dc.jpg,225088,blicket,38,image-keyboard-response,
414,shape_off,True,1,,f,off,,0.0-36.0,,f,1640,cylinder,blicket_images/ds.jpg,227193,blicket,40,image-keyboard-response,
414,shape_off,False,0,blicket_images/ds.jpg,,ds,blicket_images/dc.jpg,0.0-38.0,,dc,12535,cylinder,"Which of these options shows the image from the last trial, that you just saw?",240209,pop_quiz,42,html-button-response,
414,shape_off,True,1,,,"['dc', 'lc']",,0.0-39.0,[0],"['dc', 'lc']",8619,cylinder,,248831,rule_question,43,survey-multi-select,
382,shape_off,True,1,,j,on,,0.0-6.0,,j,2837,cylinder,blicket_images/dc.jpg,87060,blicket,10,image-keyboard-response,
382,shape_off,True,1,,f,off,,0.0-8.0,,f,4002,cylinder,blicket_images/ls.jpg,93882,blicket,12,image-keyboard-response,
382,shape_off,False,0,,f,off,,0.0-10.0,,j,2607,cylinder,blicket_images/ds.jpg,99196,blicket,14,image-keyboard-response,
382,shape_off,True,1,,j,on,,0.0-12.0,,j,4564,cylinder,blicket_images/lc.jpg,106733,blicket,16,image-keyboard-response,
382,shape_off,True,1,,f,off,,0.0-14.0,,f,2300,cylinder,blicket_images/ds.jpg,112477,blicket,18,image-keyboard-response,
382,shape_off,True,1,,j,on,,0.0-16.0,,j,4117,cylinder,blicket_images/lc.jpg,118634,blicket,20,image-keyboard-response,
382,shape_off,True,1,,f,off,,0.0-18.0,,f,1657,cylinder,blicket_images/ds.jpg,122012,blicket,22,image-keyboard-response,
382,shape_off,True,1,,f,off,,0.0-20.0,,f,2228,cylinder,blicket_images/ls.jpg,125615,blicket,24,image-keyboard-response,
382,shape_off,True,1,,j,on,,0.0-22.0,,j,1863,cylinder,blicket_images/lc.jpg,128455,blicket,26,image-keyboard-response,
382,shape_off,True,1,,j,on,,0.0-24.0,,j,1067,cylinder,blicket_images/dc.jpg,130238,blicket,28,image-keyboard-response,
382,shape_off,True,1,,f,off,,0.0-26.0,,f,1276,cylinder,blicket_images/ds.jpg,132338,blicket,30,image-keyboard-response,
382,shape_off,True,1,,f,off,,0.0-28.0,,f,999,cylinder,blicket_images/ls.jpg,134160,blicket,32,image-keyboard-response,
382,shape_off,True,1,,j,on,,0.0-30.0,,j,1149,cylinder,blicket_images/dc.jpg,135858,blicket,34,image-keyboard-response,
382,shape_off,True,1,,f,off,,0.0-32.0,,f,1164,cylinder,blicket_images/ls.jpg,137678,blicket,36,image-keyboard-response,
382,shape_off,True,1,,j,on,,0.0-34.0,,j,1175,cylinder,blicket_images/dc.jpg,139466,blicket,38,image-keyboard-response,
382,shape_off,True,1,,f,off,,0.0-36.0,,f,909,cylinder,blicket_images/ls.jpg,141105,blicket,40,image-keyboard-response,
382,shape_off,False,0,blicket_images/ls.jpg,,ls,blicket_images/ds.jpg,0.0-38.0,,ds,14054,cylinder,"Which of these options shows the image from the last trial, that you just saw?",155829,pop_quiz,42,html-button-response,
382,shape_off,False,0,,,"['dc', 'lc']",,0.0-39.0,[0],"['ds', 'ls']",8468,cylinder,,164302,rule_question,43,survey-multi-select,
447,shape_off,True,1,,j,on,,0.0-6.0,,j,2779,cylinder,blicket_images/dc.jpg,54822,blicket,16,image-keyboard-response,
447,shape_off,False,0,,j,on,,0.0-8.0,,f,2691,cylinder,blicket_images/lc.jpg,58311,blicket,18,image-keyboard-response,
447,shape_off,True,1,,f,off,,0.0-10.0,,f,1493,cylinder,blicket_images/ds.jpg,60535,blicket,20,image-keyboard-response,
447,shape_off,True,1,,j,on,,0.0-12.0,,j,2390,cylinder,blicket_images/dc.jpg,63666,blicket,22,image-keyboard-response,
447,shape_off,True,1,,f,off,,0.0-14.0,,f,1820,cylinder,blicket_images/ds.jpg,66660,blicket,24,image-keyboard-response,
447,shape_off,True,1,,j,on,,0.0-16.0,,j,1413,cylinder,blicket_images/dc.jpg,68971,blicket,26,image-keyboard-response,
447,shape_off,True,1,,f,off,,0.0-18.0,,f,2171,cylinder,blicket_images/ds.jpg,72041,blicket,28,image-keyboard-response,
447,shape_off,True,1,,f,off,,0.0-20.0,,f,2455,cylinder,blicket_images/ls.jpg,75264,blicket,30,image-keyboard-response,
447,shape_off,True,1,,j,on,,0.0-22.0,,j,1356,cylinder,blicket_images/dc.jpg,77355,blicket,32,image-keyboard-response,
447,shape_off,True,1,,j,on,,0.0-24.0,,j,1114,cylinder,blicket_images/lc.jpg,79660,blicket,34,image-keyboard-response,
447,shape_off,True,1,,f,off,,0.0-26.0,,f,1595,cylinder,blicket_images/ls.jpg,82127,blicket,36,image-keyboard-response,
447,shape_off,True,1,,f,off,,0.0-28.0,,f,1201,cylinder,blicket_images/ds.jpg,83978,blicket,38,image-keyboard-response,
447,shape_off,True,1,,j,on,,0.0-30.0,,j,1161,cylinder,blicket_images/lc.jpg,85648,blicket,40,image-keyboard-response,
447,shape_off,True,1,,f,off,,0.0-32.0,,f,1189,cylinder,blicket_images/ls.jpg,87650,blicket,42,image-keyboard-response,
447,shape_off,True,1,,j,on,,0.0-34.0,,j,1192,cylinder,blicket_images/dc.jpg,89288,blicket,44,image-keyboard-response,
447,shape_off,True,1,,f,off,,0.0-36.0,,f,1292,cylinder,blicket_images/ds.jpg,91075,blicket,46,image-keyboard-response,
447,shape_off,True,1,blicket_images/ds.jpg,,ds,blicket_images/ds.jpg,0.0-38.0,,ds,6001,cylinder,"Which of these options shows the image from the last trial, that you just saw?",97713,pop_quiz,48,html-button-response,
447,shape_off,False,0,,,"['dc', 'lc']",,0.0-39.0,[0],['lc'],4889,cylinder,,102621,rule_question,49,survey-multi-select,
464,shape_off,True,1,,f,off,,0.0-6.0,,f,5328,cube,blicket_images/lc.jpg,218160,blicket,10,image-keyboard-response,
464,shape_off,True,1,,j,on,,0.0-8.0,,j,1999,cube,blicket_images/ls.jpg,222238,blicket,12,image-keyboard-response,
464,shape_off,True,1,,j,on,,0.0-10.0,,j,648,cube,blicket_images/ds.jpg,223555,blicket,14,image-keyboard-response,
464,shape_off,True,1,,f,off,,0.0-12.0,,f,643,cube,blicket_images/dc.jpg,224768,blicket,16,image-keyboard-response,
464,shape_off,True,1,,j,on,,0.0-14.0,,j,679,cube,blicket_images/ls.jpg,226053,blicket,18,image-keyboard-response,
464,shape_off,True,1,,j,on,,0.0-16.0,,j,651,cube,blicket_images/ds.jpg,227098,blicket,20,image-keyboard-response,
464,shape_off,True,1,,j,on,,0.0-18.0,,j,614,cube,blicket_images/ls.jpg,228553,blicket,22,image-keyboard-response,
464,shape_off,True,1,,f,off,,0.0-20.0,,f,635,cube,blicket_images/dc.jpg,229559,blicket,24,image-keyboard-response,
464,shape_off,True,1,,j,on,,0.0-22.0,,j,937,cube,blicket_images/ls.jpg,231013,blicket,26,image-keyboard-response,
464,shape_off,True,1,,f,off,,0.0-24.0,,f,545,cube,blicket_images/dc.jpg,232058,blicket,28,image-keyboard-response,
464,shape_off,True,1,,f,off,,0.0-26.0,,f,1398,cube,blicket_images/lc.jpg,234034,blicket,30,image-keyboard-response,
464,shape_off,True,1,,j,on,,0.0-28.0,,j,658,cube,blicket_images/ds.jpg,235062,blicket,32,image-keyboard-response,
464,shape_off,True,1,,f,off,,0.0-30.0,,f,549,cube,blicket_images/lc.jpg,235917,blicket,34,image-keyboard-response,
464,shape_off,True,1,,f,off,,0.0-32.0,,f,729,cube,blicket_images/dc.jpg,236958,blicket,36,image-keyboard-response,
464,shape_off,True,1,,j,on,,0.0-34.0,,j,627,cube,blicket_images/ds.jpg,237860,blicket,38,image-keyboard-response,
464,shape_off,True,1,,f,off,,0.0-36.0,,f,594,cube,blicket_images/lc.jpg,238715,blicket,40,image-keyboard-response,
464,shape_off,False,0,blicket_images/lc.jpg,,lc,blicket_images/ds.jpg,0.0-38.0,,ds,12286,cube,"Which of these options shows the image from the last trial, that you just saw?",251262,pop_quiz,42,html-button-response,
464,shape_off,True,1,,,"['ds', 'ls']",,0.0-39.0,[0],"['ds', 'ls']",5089,cube,,256359,rule_question,43,survey-multi-select,
363,shape_off,False,0,,j,on,,0.0-6.0,,f,4670,cube,blicket_images/ls.jpg,125206,blicket,10,image-keyboard-response,
363,shape_off,True,1,,f,off,,0.0-8.0,,f,9898,cube,blicket_images/dc.jpg,136862,blicket,12,image-keyboard-response,
363,shape_off,True,1,,j,on,,0.0-10.0,,j,3287,cube,blicket_images/ds.jpg,142036,blicket,14,image-keyboard-response,
363,shape_off,True,1,,f,off,,0.0-12.0,,f,1422,cube,blicket_images/dc.jpg,148628,blicket,16,image-keyboard-response,
363,shape_off,True,1,,j,on,,0.0-14.0,,j,1561,cube,blicket_images/ls.jpg,158133,blicket,18,image-keyboard-response,
363,shape_off,True,1,,f,off,,0.0-16.0,,f,1095,cube,blicket_images/dc.jpg,160356,blicket,20,image-keyboard-response,
363,shape_off,True,1,,f,off,,0.0-18.0,,f,679,cube,blicket_images/lc.jpg,161860,blicket,22,image-keyboard-response,
363,shape_off,True,1,,j,on,,0.0-20.0,,j,1844,cube,blicket_images/ds.jpg,165948,blicket,24,image-keyboard-response,
363,shape_off,True,1,,f,off,,0.0-22.0,,f,735,cube,blicket_images/lc.jpg,167820,blicket,26,image-keyboard-response,
363,shape_off,True,1,,j,on,,0.0-24.0,,j,853,cube,blicket_images/ds.jpg,169363,blicket,28,image-keyboard-response,
363,shape_off,True,1,,f,off,,0.0-26.0,,f,2062,cube,blicket_images/lc.jpg,172203,blicket,30,image-keyboard-response,
363,shape_off,True,1,,j,on,,0.0-28.0,,j,1118,cube,blicket_images/ls.jpg,174899,blicket,32,image-keyboard-response,
363,shape_off,True,1,,f,off,,0.0-30.0,,f,1039,cube,blicket_images/lc.jpg,176755,blicket,34,image-keyboard-response,
363,shape_off,True,1,,f,off,,0.0-32.0,,f,1897,cube,blicket_images/dc.jpg,179565,blicket,36,image-keyboard-response,
363,shape_off,True,1,,j,on,,0.0-34.0,,j,1431,cube,blicket_images/ds.jpg,182011,blicket,38,image-keyboard-response,
363,shape_off,True,1,,f,off,,0.0-36.0,,f,783,cube,blicket_images/lc.jpg,183468,blicket,40,image-keyboard-response,
363,shape_off,False,0,blicket_images/lc.jpg,,lc,blicket_images/dc.jpg,0.0-38.0,,dc,11416,cube,"Which of these options shows the image from the last trial, that you just saw?",195637,pop_quiz,42,html-button-response,
363,shape_off,True,1,,,"['ds', 'ls']",,0.0-39.0,[0],"['ds', 'ls']",7877,cube,,203520,rule_question,43,survey-multi-select,
396,shape_off,False,0,,f,off,,0.0-6.0,,j,2616,cube,blicket_images/lc.jpg,72413,blicket,10,image-keyboard-response,
396,shape_off,False,0,,f,off,,0.0-8.0,,j,1873,cube,blicket_images/dc.jpg,79365,blicket,12,image-keyboard-response,
396,shape_off,False,0,,f,off,,0.0-10.0,,j,3424,cube,blicket_images/lc.jpg,84757,blicket,14,image-keyboard-response,
396,shape_off,True,1,,f,off,,0.0-12.0,,f,2523,cube,blicket_images/dc.jpg,88957,blicket,16,image-keyboard-response,
396,shape_off,True,1,,j,on,,0.0-14.0,,j,3101,cube,blicket_images/ls.jpg,93760,blicket,18,image-keyboard-response,
396,shape_off,True,1,,f,off,,0.0-16.0,,f,1831,cube,blicket_images/dc.jpg,97207,blicket,20,image-keyboard-response,
396,shape_off,True,1,,j,on,,0.0-18.0,,j,2735,cube,blicket_images/ds.jpg,100855,blicket,22,image-keyboard-response,
396,shape_off,True,1,,f,off,,0.0-20.0,,f,1772,cube,blicket_images/lc.jpg,103726,blicket,24,image-keyboard-response,
396,shape_off,True,1,,j,on,,0.0-22.0,,j,2384,cube,blicket_images/ds.jpg,107133,blicket,26,image-keyboard-response,
396,shape_off,True,1,,j,on,,0.0-24.0,,j,2455,cube,blicket_images/ls.jpg,110731,blicket,28,image-keyboard-response,
396,shape_off,True,1,,f,off,,0.0-26.0,,f,2952,cube,blicket_images/lc.jpg,114722,blicket,30,image-keyboard-response,
396,shape_off,True,1,,f,off,,0.0-28.0,,f,3961,cube,blicket_images/dc.jpg,119652,blicket,32,image-keyboard-response,
396,shape_off,True,1,,j,on,,0.0-30.0,,j,1432,cube,blicket_images/ls.jpg,121665,blicket,34,image-keyboard-response,
396,shape_off,True,1,,j,on,,0.0-32.0,,j,2013,cube,blicket_images/ds.jpg,124345,blicket,36,image-keyboard-response,
396,shape_off,False,0,,j,on,,0.0-34.0,,f,1743,cube,blicket_images/ls.jpg,126578,blicket,38,image-keyboard-response,
396,shape_off,True,1,,f,off,,0.0-36.0,,f,2454,cube,blicket_images/lc.jpg,130498,blicket,40,image-keyboard-response,
396,shape_off,False,0,blicket_images/lc.jpg,,lc,blicket_images/ls.jpg,0.0-38.0,,ls,9607,cube,"Which of these options shows the image from the last trial, that you just saw?",140756,pop_quiz,42,html-button-response,
396,shape_off,True,1,,,"['ds', 'ls']",,0.0-39.0,[0],"['ds', 'ls']",6640,cube,,147400,rule_question,43,survey-multi-select,
345,shape_off,True,1,,j,on,,0.0-6.0,,j,31200,cube,blicket_images/ds.jpg,135100,blicket,16,image-keyboard-response,
345,shape_off,True,1,,j,on,,0.0-8.0,,j,4000,cube,blicket_images/ls.jpg,141400,blicket,18,image-keyboard-response,
345,shape_off,True,1,,f,off,,0.0-10.0,,f,8900,cube,blicket_images/dc.jpg,150900,blicket,20,image-keyboard-response,
345,shape_off,False,0,,j,on,,0.0-12.0,,f,30500,cube,blicket_images/ds.jpg,182100,blicket,22,image-keyboard-response,
345,shape_off,True,1,,f,off,,0.0-14.0,,f,1500,cube,blicket_images/lc.jpg,184200,blicket,24,image-keyboard-response,
345,shape_off,True,1,,j,on,,0.0-16.0,,j,1400,cube,blicket_images/ds.jpg,186100,blicket,26,image-keyboard-response,
345,shape_off,True,1,,j,on,,0.0-18.0,,j,1900,cube,blicket_images/ls.jpg,188500,blicket,28,image-keyboard-response,
345,shape_off,True,1,,f,off,,0.0-20.0,,f,4600,cube,blicket_images/lc.jpg,193600,blicket,30,image-keyboard-response,
345,shape_off,True,1,,j,on,,0.0-22.0,,j,2500,cube,blicket_images/ls.jpg,196600,blicket,32,image-keyboard-response,
345,shape_off,True,1,,f,off,,0.0-24.0,,f,1400,cube,blicket_images/dc.jpg,198500,blicket,34,image-keyboard-response,
345,shape_off,True,1,,j,on,,0.0-26.0,,j,3000,cube,blicket_images/ds.jpg,202000,blicket,36,image-keyboard-response,
345,shape_off,True,1,,f,off,,0.0-28.0,,f,2600,cube,blicket_images/dc.jpg,205000,blicket,38,image-keyboard-response,
345,shape_off,True,1,,f,off,,0.0-30.0,,f,2900,cube,blicket_images/lc.jpg,208400,blicket,40,image-keyboard-response,
345,shape_off,True,1,,f,off,,0.0-32.0,,f,1700,cube,blicket_images/dc.jpg,210600,blicket,42,image-keyboard-response,
345,shape_off,True,1,,f,off,,0.0-34.0,,f,1200,cube,blicket_images/lc.jpg,212400,blicket,44,image-keyboard-response,
345,shape_off,True,1,,f,off,,0.0-36.0,,f,1700,cube,blicket_images/dc.jpg,214500,blicket,46,image-keyboard-response,
345,shape_off,True,1,blicket_images/dc.jpg,,dc,blicket_images/dc.jpg,0.0-38.0,,dc,11000,cube,"Which of these options shows the image from the last trial, that you just saw?",226400,pop_quiz,48,html-button-response,
345,shape_off,False,0,,,"['ds', 'ls']",,0.0-39.0,[0],['ls'],18500,cube,,244900,rule_question,49,survey-multi-select,
355,shape_off,True,1,,j,on,,0.0-6.0,,j,6418,cylinder,blicket_images/lc.jpg,273687,blicket,10,image-keyboard-response,
355,shape_off,False,0,,j,on,,0.0-8.0,,f,2819,cylinder,blicket_images/dc.jpg,370876,blicket,12,image-keyboard-response,
355,shape_off,True,1,,f,off,,0.0-10.0,,f,2252,cylinder,blicket_images/ls.jpg,377271,blicket,14,image-keyboard-response,
355,shape_off,True,1,,j,on,,0.0-12.0,,j,3113,cylinder,blicket_images/lc.jpg,383455,blicket,16,image-keyboard-response,
355,shape_off,True,1,,f,off,,0.0-14.0,,f,8608,cylinder,blicket_images/ds.jpg,394546,blicket,18,image-keyboard-response,
355,shape_off,False,0,,f,off,,0.0-16.0,,j,4940,cylinder,blicket_images/ls.jpg,403216,blicket,20,image-keyboard-response,
355,shape_off,True,1,,f,off,,0.0-18.0,,f,5160,cylinder,blicket_images/ds.jpg,412059,blicket,22,image-keyboard-response,
355,shape_off,False,0,,f,off,,0.0-20.0,,j,1348,cylinder,blicket_images/ls.jpg,415092,blicket,24,image-keyboard-response,
355,shape_off,True,1,,j,on,,0.0-22.0,,j,1308,cylinder,blicket_images/dc.jpg,417557,blicket,26,image-keyboard-response,
