workerid,proliferate.condition,accuracy,accuracy_bool,condition,correct_img,correct_key,correct_response,hidden_img,img_selected,internal_node_id,question_order,response,rt,stimulus,time_elapsed,trial,trial_index,trial_type,error
968,lc_lc,False,0,lc_lc,,f,off,blicket_images/dc.jpg,,0.0-6.0,,j,3712,blicket_images/dc.jpg,92691,blicket,10,image-keyboard-response,
968,lc_lc,True,1,lc_lc,,f,off,blicket_images/ls.jpg,,0.0-8.0,,f,1507,blicket_images/ls.jpg,95074,blicket,12,image-keyboard-response,
968,lc_lc,True,1,lc_lc,,f,off,blicket_images/ds.jpg,,0.0-10.0,,f,2347,blicket_images/ds.jpg,98418,blicket,14,image-keyboard-response,
968,lc_lc,True,1,lc_lc,,f,off,blicket_images/dc.jpg,,0.0-12.0,,f,1998,blicket_images/dc.jpg,101079,blicket,16,image-keyboard-response,
968,lc_lc,False,0,lc_lc,,f,off,blicket_images/ls.jpg,,0.0-14.0,,j,855,blicket_images/ls.jpg,102517,blicket,18,image-keyboard-response,
968,lc_lc,True,1,lc_lc,,j,on,blicket_images/lc.jpg,,0.0-16.0,,j,925,blicket_images/lc.jpg,104299,blicket,20,image-keyboard-response,
968,lc_lc,True,1,lc_lc,,f,off,blicket_images/dc.jpg,,0.0-18.0,,f,853,blicket_images/dc.jpg,105785,blicket,22,image-keyboard-response,
968,lc_lc,True,1,lc_lc,,f,off,blicket_images/ds.jpg,,0.0-20.0,,f,964,blicket_images/ds.jpg,107366,blicket,24,image-keyboard-response,
968,lc_lc,True,1,lc_lc,,j,on,blicket_images/lc.jpg,,0.0-22.0,,j,1130,blicket_images/lc.jpg,109072,blicket,26,image-keyboard-response,
968,lc_lc,True,1,lc_lc,,f,off,blicket_images/dc.jpg,,0.0-24.0,,f,929,blicket_images/dc.jpg,112337,blicket,28,image-keyboard-response,
968,lc_lc,True,1,lc_lc,,f,off,blicket_images/ls.jpg,,0.0-26.0,,f,1076,blicket_images/ls.jpg,114071,blicket,30,image-keyboard-response,
968,lc_lc,True,1,lc_lc,,j,on,blicket_images/lc.jpg,,0.0-28.0,,j,1320,blicket_images/lc.jpg,115916,blicket,32,image-keyboard-response,
968,lc_lc,True,1,lc_lc,,f,off,blicket_images/ds.jpg,,0.0-30.0,,f,1622,blicket_images/ds.jpg,118002,blicket,34,image-keyboard-response,
968,lc_lc,True,1,lc_lc,,f,off,blicket_images/ls.jpg,,0.0-32.0,,f,1365,blicket_images/ls.jpg,119677,blicket,36,image-keyboard-response,
968,lc_lc,True,1,lc_lc,,f,off,blicket_images/ds.jpg,,0.0-34.0,,f,815,blicket_images/ds.jpg,121030,blicket,38,image-keyboard-response,
968,lc_lc,True,1,lc_lc,,j,on,blicket_images/lc.jpg,,0.0-36.0,,j,946,blicket_images/lc.jpg,122534,blicket,40,image-keyboard-response,
968,lc_lc,True,1,lc_lc,blicket_images/lc.jpg,,lc,,blicket_images/lc.jpg,0.0-37.0,,lc,8331,"Which of these options shows the image from the last trial, that you just saw?",130867,pop_quiz,41,html-button-response,
968,lc_lc,True,1,lc_lc,,,['lc'],,,0.0-38.0,[0],['lc'],14685,,145554,rule_question,42,survey-multi-select,
892,lc_lc,False,0,lc_lc,,f,off,blicket_images/ls.jpg,,0.0-6.0,,j,8601,blicket_images/ls.jpg,168823,blicket,10,image-keyboard-response,
892,lc_lc,False,0,lc_lc,,j,on,blicket_images/lc.jpg,,0.0-8.0,,f,9799,blicket_images/lc.jpg,191727,blicket,12,image-keyboard-response,
892,lc_lc,True,1,lc_lc,,f,off,blicket_images/dc.jpg,,0.0-10.0,,f,21175,blicket_images/dc.jpg,221608,blicket,14,image-keyboard-response,
892,lc_lc,True,1,lc_lc,,f,off,blicket_images/ds.jpg,,0.0-12.0,,f,8799,blicket_images/ds.jpg,236009,blicket,16,image-keyboard-response,
892,lc_lc,True,1,lc_lc,,f,off,blicket_images/ls.jpg,,0.0-14.0,,f,5295,blicket_images/ls.jpg,255281,blicket,18,image-keyboard-response,
892,lc_lc,True,1,lc_lc,,f,off,blicket_images/ds.jpg,,0.0-16.0,,f,3216,blicket_images/ds.jpg,260674,blicket,20,image-keyboard-response,
892,lc_lc,True,1,lc_lc,,j,on,blicket_images/lc.jpg,,0.0-18.0,,j,2639,blicket_images/lc.jpg,268282,blicket,22,image-keyboard-response,
892,lc_lc,True,1,lc_lc,,f,off,blicket_images/ds.jpg,,0.0-20.0,,f,1015,blicket_images/ds.jpg,270857,blicket,24,image-keyboard-response,
892,lc_lc,True,1,lc_lc,,f,off,blicket_images/dc.jpg,,0.0-22.0,,f,1007,blicket_images/dc.jpg,273194,blicket,26,image-keyboard-response,
892,lc_lc,True,1,lc_lc,,f,off,blicket_images/ls.jpg,,0.0-24.0,,f,2310,blicket_images/ls.jpg,277450,blicket,28,image-keyboard-response,
892,lc_lc,True,1,lc_lc,,f,off,blicket_images/ds.jpg,,0.0-26.0,,f,3864,blicket_images/ds.jpg,282578,blicket,30,image-keyboard-response,
892,lc_lc,True,1,lc_lc,,f,off,blicket_images/dc.jpg,,0.0-28.0,,f,982,blicket_images/dc.jpg,284585,blicket,32,image-keyboard-response,
892,lc_lc,True,1,lc_lc,,f,off,blicket_images/ls.jpg,,0.0-30.0,,f,1184,blicket_images/ls.jpg,286018,blicket,34,image-keyboard-response,
892,lc_lc,True,1,lc_lc,,j,on,blicket_images/lc.jpg,,0.0-32.0,,j,1360,blicket_images/lc.jpg,287586,blicket,36,image-keyboard-response,
892,lc_lc,True,1,lc_lc,,f,off,blicket_images/dc.jpg,,0.0-34.0,,f,1112,blicket_images/dc.jpg,288986,blicket,38,image-keyboard-response,
892,lc_lc,True,1,lc_lc,,j,on,blicket_images/lc.jpg,,0.0-36.0,,j,1648,blicket_images/lc.jpg,290898,blicket,40,image-keyboard-response,
892,lc_lc,False,0,lc_lc,blicket_images/lc.jpg,,lc,,blicket_images/ls.jpg,0.0-37.0,,ls,6342,"Which of these options shows the image from the last trial, that you just saw?",297241,pop_quiz,41,html-button-response,
892,lc_lc,True,1,lc_lc,,,['lc'],,,0.0-38.0,[0],['lc'],32805,,330051,rule_question,42,survey-multi-select,
884,lc_lc,True,1,lc_lc,,j,on,blicket_images/lc.jpg,,0.0-6.0,,j,7379,blicket_images/lc.jpg,138150,blicket,16,image-keyboard-response,
884,lc_lc,True,1,lc_lc,,f,off,blicket_images/ds.jpg,,0.0-8.0,,f,5319,blicket_images/ds.jpg,144887,blicket,18,image-keyboard-response,
884,lc_lc,True,1,lc_lc,,f,off,blicket_images/dc.jpg,,0.0-10.0,,f,3367,blicket_images/dc.jpg,149551,blicket,20,image-keyboard-response,
884,lc_lc,False,0,lc_lc,,f,off,blicket_images/ls.jpg,,0.0-12.0,,j,1566,blicket_images/ls.jpg,152094,blicket,22,image-keyboard-response,
884,lc_lc,True,1,lc_lc,,f,off,blicket_images/ds.jpg,,0.0-14.0,,f,3599,blicket_images/ds.jpg,156663,blicket,24,image-keyboard-response,
884,lc_lc,True,1,lc_lc,,f,off,blicket_images/dc.jpg,,0.0-16.0,,f,1399,blicket_images/dc.jpg,158840,blicket,26,image-keyboard-response,
884,lc_lc,True,1,lc_lc,,j,on,blicket_images/lc.jpg,,0.0-18.0,,j,5967,blicket_images/lc.jpg,165384,blicket,28,image-keyboard-response,
884,lc_lc,True,1,lc_lc,,f,off,blicket_images/ls.jpg,,0.0-20.0,,f,1439,blicket_images/ls.jpg,168096,blicket,30,image-keyboard-response,
884,lc_lc,True,1,lc_lc,,f,off,blicket_images/dc.jpg,,0.0-22.0,,f,2527,blicket_images/dc.jpg,171207,blicket,32,image-keyboard-response,
884,lc_lc,True,1,lc_lc,,f,off,blicket_images/ls.jpg,,0.0-24.0,,f,3482,blicket_images/ls.jpg,175328,blicket,34,image-keyboard-response,
884,lc_lc,True,1,lc_lc,,j,on,blicket_images/lc.jpg,,0.0-26.0,,j,1031,blicket_images/lc.jpg,176896,blicket,36,image-keyboard-response,
884,lc_lc,True,1,lc_lc,,f,off,blicket_images/dc.jpg,,0.0-28.0,,f,1583,blicket_images/dc.jpg,179152,blicket,38,image-keyboard-response,
884,lc_lc,True,1,lc_lc,,f,off,blicket_images/ls.jpg,,0.0-30.0,,f,3518,blicket_images/ls.jpg,183272,blicket,40,image-keyboard-response,
884,lc_lc,True,1,lc_lc,,f,off,blicket_images/ds.jpg,,0.0-32.0,,f,967,blicket_images/ds.jpg,184864,blicket,42,image-keyboard-response,
884,lc_lc,True,1,lc_lc,,f,off,blicket_images/ls.jpg,,0.0-34.0,,f,1167,blicket_images/ls.jpg,186416,blicket,44,image-keyboard-response,
884,lc_lc,True,1,lc_lc,,j,on,blicket_images/lc.jpg,,0.0-36.0,,j,3598,blicket_images/lc.jpg,190407,blicket,46,image-keyboard-response,
884,lc_lc,False,0,lc_lc,blicket_images/lc.jpg,,lc,,blicket_images/ls.jpg,0.0-37.0,,ls,12079,"Which of these options shows the image from the last trial, that you just saw?",202487,pop_quiz,47,html-button-response,
884,lc_lc,True,1,lc_lc,,,['lc'],,,0.0-38.0,[0],['lc'],10077,,212568,rule_question,48,survey-multi-select,
876,lc_lc,True,1,lc_lc,,j,on,blicket_images/lc.jpg,,0.0-6.0,,j,2318,blicket_images/lc.jpg,57991,blicket,10,image-keyboard-response,
876,lc_lc,True,1,lc_lc,,f,off,blicket_images/dc.jpg,,0.0-8.0,,f,927,blicket_images/dc.jpg,59816,blicket,12,image-keyboard-response,
876,lc_lc,False,0,lc_lc,,f,off,blicket_images/ls.jpg,,0.0-10.0,,j,921,blicket_images/ls.jpg,61506,blicket,14,image-keyboard-response,
876,lc_lc,False,0,lc_lc,,f,off,blicket_images/ds.jpg,,0.0-12.0,,j,909,blicket_images/ds.jpg,63384,blicket,16,image-keyboard-response,
876,lc_lc,True,1,lc_lc,,f,off,blicket_images/ls.jpg,,0.0-14.0,,f,1304,blicket_images/ls.jpg,65599,blicket,18,image-keyboard-response,
876,lc_lc,True,1,lc_lc,,f,off,blicket_images/ds.jpg,,0.0-16.0,,f,824,blicket_images/ds.jpg,66945,blicket,20,image-keyboard-response,
876,lc_lc,True,1,lc_lc,,f,off,blicket_images/dc.jpg,,0.0-18.0,,f,819,blicket_images/dc.jpg,68131,blicket,22,image-keyboard-response,
876,lc_lc,True,1,lc_lc,,f,off,blicket_images/ls.jpg,,0.0-20.0,,f,775,blicket_images/ls.jpg,69145,blicket,24,image-keyboard-response,
876,lc_lc,True,1,lc_lc,,j,on,blicket_images/lc.jpg,,0.0-22.0,,j,753,blicket_images/lc.jpg,70121,blicket,26,image-keyboard-response,
876,lc_lc,True,1,lc_lc,,f,off,blicket_images/ds.jpg,,0.0-24.0,,f,728,blicket_images/ds.jpg,71080,blicket,28,image-keyboard-response,
876,lc_lc,True,1,lc_lc,,j,on,blicket_images/lc.jpg,,0.0-26.0,,j,952,blicket_images/lc.jpg,72248,blicket,30,image-keyboard-response,
876,lc_lc,True,1,lc_lc,,f,off,blicket_images/ds.jpg,,0.0-28.0,,f,558,blicket_images/ds.jpg,73058,blicket,32,image-keyboard-response,
876,lc_lc,True,1,lc_lc,,j,on,blicket_images/lc.jpg,,0.0-30.0,,j,658,blicket_images/lc.jpg,73894,blicket,34,image-keyboard-response,
876,lc_lc,True,1,lc_lc,,f,off,blicket_images/dc.jpg,,0.0-32.0,,f,875,blicket_images/dc.jpg,74982,blicket,36,image-keyboard-response,
876,lc_lc,True,1,lc_lc,,f,off,blicket_images/ds.jpg,,0.0-34.0,,f,601,blicket_images/ds.jpg,75780,blicket,38,image-keyboard-response,
876,lc_lc,True,1,lc_lc,,j,on,blicket_images/lc.jpg,,0.0-36.0,,j,585,blicket_images/lc.jpg,76592,blicket,40,image-keyboard-response,
876,lc_lc,True,1,lc_lc,blicket_images/lc.jpg,,lc,,blicket_images/lc.jpg,0.0-37.0,,lc,6902,"Which of these options shows the image from the last trial, that you just saw?",83496,pop_quiz,41,html-button-response,
876,lc_lc,True,1,lc_lc,,,['lc'],,,0.0-38.0,[0],['lc'],4269,,87768,rule_question,42,survey-multi-select,
916,lc_lc,True,1,lc_lc,,f,off,blicket_images/ds.jpg,,0.0-6.0,,f,4981,blicket_images/ds.jpg,121165,blicket,10,image-keyboard-response,
916,lc_lc,False,0,lc_lc,,f,off,blicket_images/ls.jpg,,0.0-8.0,,j,6899,blicket_images/ls.jpg,130360,blicket,12,image-keyboard-response,
916,lc_lc,True,1,lc_lc,,f,off,blicket_images/ds.jpg,,0.0-10.0,,f,4854,blicket_images/ds.jpg,136718,blicket,14,image-keyboard-response,
916,lc_lc,False,0,lc_lc,,j,on,blicket_images/lc.jpg,,0.0-12.0,,f,2476,blicket_images/lc.jpg,140514,blicket,16,image-keyboard-response,
916,lc_lc,False,0,lc_lc,,f,off,blicket_images/dc.jpg,,0.0-14.0,,j,4848,blicket_images/dc.jpg,146613,blicket,18,image-keyboard-response,
916,lc_lc,True,1,lc_lc,,j,on,blicket_images/lc.jpg,,0.0-16.0,,j,2152,blicket_images/lc.jpg,149550,blicket,20,image-keyboard-response,
916,lc_lc,True,1,lc_lc,,f,off,blicket_images/ls.jpg,,0.0-18.0,,f,2703,blicket_images/ls.jpg,153138,blicket,22,image-keyboard-response,
916,lc_lc,True,1,lc_lc,,f,off,blicket_images/ds.jpg,,0.0-20.0,,f,3895,blicket_images/ds.jpg,157859,blicket,24,image-keyboard-response,
916,lc_lc,False,0,lc_lc,,f,off,blicket_images/dc.jpg,,0.0-22.0,,j,3256,blicket_images/dc.jpg,161904,blicket,26,image-keyboard-response,
916,lc_lc,False,0,lc_lc,,j,on,blicket_images/lc.jpg,,0.0-24.0,,f,1865,blicket_images/lc.jpg,164475,blicket,28,image-keyboard-response,
916,lc_lc,False,0,lc_lc,,f,off,blicket_images/dc.jpg,,0.0-26.0,,j,2457,blicket_images/dc.jpg,170607,blicket,30,image-keyboard-response,
916,lc_lc,False,0,lc_lc,,f,off,blicket_images/ls.jpg,,0.0-28.0,,j,3606,blicket_images/ls.jpg,175194,blicket,32,image-keyboard-response,
916,lc_lc,True,1,lc_lc,,f,off,blicket_images/dc.jpg,,0.0-30.0,,f,2655,blicket_images/dc.jpg,178508,blicket,34,image-keyboard-response,
916,lc_lc,True,1,lc_lc,,f,off,blicket_images/ls.jpg,,0.0-32.0,,f,1715,blicket_images/ls.jpg,181453,blicket,36,image-keyboard-response,
916,lc_lc,True,1,lc_lc,,f,off,blicket_images/ds.jpg,,0.0-34.0,,f,1541,blicket_images/ds.jpg,183908,blicket,38,image-keyboard-response,
916,lc_lc,False,0,lc_lc,,j,on,blicket_images/lc.jpg,,0.0-36.0,,f,1341,blicket_images/lc.jpg,186110,blicket,40,image-keyboard-response,
916,lc_lc,False,0,lc_lc,blicket_images/lc.jpg,,lc,,blicket_images/ls.jpg,0.0-37.0,,ls,10895,"Which of these options shows the image from the last trial, that you just saw?",197010,pop_quiz,41,html-button-response,
916,lc_lc,True,1,lc_lc,,,['lc'],,,0.0-38.0,[0],['lc'],10685,,207706,rule_question,42,survey-multi-select,
868,lc_lc,False,0,lc_lc,,f,off,blicket_images/dc.jpg,,0.0-6.0,,j,7172,blicket_images/dc.jpg,172988,blicket,10,image-keyboard-response,
868,lc_lc,True,1,lc_lc,,j,on,blicket_images/lc.jpg,,0.0-8.0,,j,3568,blicket_images/lc.jpg,182496,blicket,12,image-keyboard-response,
868,lc_lc,True,1,lc_lc,,f,off,blicket_images/ds.jpg,,0.0-10.0,,f,3910,blicket_images/ds.jpg,190632,blicket,14,image-keyboard-response,
868,lc_lc,True,1,lc_lc,,j,on,blicket_images/lc.jpg,,0.0-12.0,,j,5906,blicket_images/lc.jpg,204058,blicket,16,image-keyboard-response,
868,lc_lc,True,1,lc_lc,,f,off,blicket_images/ls.jpg,,0.0-14.0,,f,3958,blicket_images/ls.jpg,212652,blicket,18,image-keyboard-response,
868,lc_lc,False,0,lc_lc,,f,off,blicket_images/dc.jpg,,0.0-16.0,,j,3223,blicket_images/dc.jpg,219737,blicket,20,image-keyboard-response,
868,lc_lc,True,1,lc_lc,,f,off,blicket_images/ds.jpg,,0.0-18.0,,f,3732,blicket_images/ds.jpg,228624,blicket,22,image-keyboard-response,
868,lc_lc,True,1,lc_lc,,f,off,blicket_images/dc.jpg,,0.0-20.0,,f,6160,blicket_images/dc.jpg,240354,blicket,24,image-keyboard-response,
868,lc_lc,True,1,lc_lc,,j,on,blicket_images/lc.jpg,,0.0-22.0,,j,2635,blicket_images/lc.jpg,246641,blicket,26,image-keyboard-response,
868,lc_lc,True,1,lc_lc,,f,off,blicket_images/ds.jpg,,0.0-24.0,,f,2192,blicket_images/ds.jpg,250292,blicket,28,image-keyboard-response,
868,lc_lc,False,0,lc_lc,,f,off,blicket_images/ls.jpg,,0.0-26.0,,j,1916,blicket_images/ls.jpg,253706,blicket,30,image-keyboard-response,
868,lc_lc,True,1,lc_lc,,f,off,blicket_images/dc.jpg,,0.0-28.0,,f,4278,blicket_images/dc.jpg,260043,blicket,32,image-keyboard-response,
868,lc_lc,True,1,lc_lc,,f,off,blicket_images/ls.jpg,,0.0-30.0,,f,2432,blicket_images/ls.jpg,264012,blicket,34,image-keyboard-response,
868,lc_lc,True,1,lc_lc,,j,on,blicket_images/lc.jpg,,0.0-32.0,,j,1974,blicket_images/lc.jpg,267401,blicket,36,image-keyboard-response,
868,lc_lc,False,0,lc_lc,,f,off,blicket_images/dc.jpg,,0.0-34.0,,j,2186,blicket_images/dc.jpg,271070,blicket,38,image-keyboard-response,
868,lc_lc,True,1,lc_lc,,j,on,blicket_images/lc.jpg,,0.0-36.0,,j,1601,blicket_images/lc.jpg,274068,blicket,40,image-keyboard-response,
868,lc_lc,True,1,lc_lc,blicket_images/lc.jpg,,lc,,blicket_images/lc.jpg,0.0-37.0,,lc,9821,"Which of these options shows the image from the last trial, that you just saw?",283899,pop_quiz,41,html-button-response,
868,lc_lc,False,0,lc_lc,,,['lc'],,,0.0-38.0,[0],"['dc', 'ds', 'lc', 'ls']",36494,,320423,rule_question,42,survey-multi-select,
924,lc_lc,False,0,lc_lc,,f,off,blicket_images/ds.jpg,,0.0-6.0,,j,6162,blicket_images/ds.jpg,189134,blicket,10,image-keyboard-response,
924,lc_lc,False,0,lc_lc,,j,on,blicket_images/lc.jpg,,0.0-8.0,,f,4230,blicket_images/lc.jpg,195358,blicket,12,image-keyboard-response,
924,lc_lc,False,0,lc_lc,,f,off,blicket_images/ls.jpg,,0.0-10.0,,j,1273,blicket_images/ls.jpg,198151,blicket,14,image-keyboard-response,
924,lc_lc,True,1,lc_lc,,f,off,blicket_images/ds.jpg,,0.0-12.0,,f,2539,blicket_images/ds.jpg,202123,blicket,16,image-keyboard-response,
924,lc_lc,True,1,lc_lc,,f,off,blicket_images/dc.jpg,,0.0-14.0,,f,1628,blicket_images/dc.jpg,206047,blicket,18,image-keyboard-response,
924,lc_lc,True,1,lc_lc,,j,on,blicket_images/lc.jpg,,0.0-16.0,,j,1337,blicket_images/lc.jpg,208953,blicket,20,image-keyboard-response,
924,lc_lc,True,1,lc_lc,,f,off,blicket_images/ls.jpg,,0.0-18.0,,f,938,blicket_images/ls.jpg,210869,blicket,22,image-keyboard-response,
924,lc_lc,True,1,lc_lc,,f,off,blicket_images/dc.jpg,,0.0-20.0,,f,1698,blicket_images/dc.jpg,213605,blicket,24,image-keyboard-response,
924,lc_lc,True,1,lc_lc,,f,off,blicket_images/ds.jpg,,0.0-22.0,,f,1032,blicket_images/ds.jpg,215415,blicket,26,image-keyboard-response,
924,lc_lc,True,1,lc_lc,,f,off,blicket_images/ls.jpg,,0.0-24.0,,f,933,blicket_images/ls.jpg,216627,blicket,28,image-keyboard-response,
924,lc_lc,False,0,lc_lc,,f,off,blicket_images/dc.jpg,,0.0-26.0,,j,1663,blicket_images/dc.jpg,218585,blicket,30,image-keyboard-response,
924,lc_lc,False,0,lc_lc,,f,off,blicket_images/ls.jpg,,0.0-28.0,,j,1455,blicket_images/ls.jpg,222142,blicket,32,image-keyboard-response,
924,lc_lc,True,1,lc_lc,,f,off,blicket_images/ds.jpg,,0.0-30.0,,f,1698,blicket_images/ds.jpg,226136,blicket,34,image-keyboard-response,
924,lc_lc,True,1,lc_lc,,j,on,blicket_images/lc.jpg,,0.0-32.0,,j,1259,blicket_images/lc.jpg,229140,blicket,36,image-keyboard-response,
924,lc_lc,True,1,lc_lc,,f,off,blicket_images/ds.jpg,,0.0-34.0,,f,1150,blicket_images/ds.jpg,231650,blicket,38,image-keyboard-response,
924,lc_lc,True,1,lc_lc,,j,on,blicket_images/lc.jpg,,0.0-36.0,,j,1325,blicket_images/lc.jpg,234377,blicket,40,image-keyboard-response,
924,lc_lc,True,1,lc_lc,blicket_images/lc.jpg,,lc,,blicket_images/lc.jpg,0.0-37.0,,lc,3310,"Which of these options shows the image from the last trial, that you just saw?",237691,pop_quiz,41,html-button-response,
924,lc_lc,True,1,lc_lc,,,['lc'],,,0.0-38.0,[0],['lc'],5000,,242703,rule_question,42,survey-multi-select,
900,lc_lc,False,0,lc_lc,,f,off,blicket_images/ds.jpg,,0.0-6.0,,j,2437,blicket_images/ds.jpg,122919,blicket,16,image-keyboard-response,
900,lc_lc,False,0,lc_lc,,f,off,blicket_images/dc.jpg,,0.0-8.0,,j,1580,blicket_images/dc.jpg,125844,blicket,18,image-keyboard-response,
900,lc_lc,True,1,lc_lc,,j,on,blicket_images/lc.jpg,,0.0-10.0,,j,1654,blicket_images/lc.jpg,128618,blicket,20,image-keyboard-response,
900,lc_lc,True,1,lc_lc,,f,off,blicket_images/ds.jpg,,0.0-12.0,,f,3607,blicket_images/ds.jpg,133396,blicket,22,image-keyboard-response,
900,lc_lc,False,0,lc_lc,,f,off,blicket_images/ls.jpg,,0.0-14.0,,j,1922,blicket_images/ls.jpg,136607,blicket,24,image-keyboard-response,
900,lc_lc,False,0,lc_lc,,f,off,blicket_images/dc.jpg,,0.0-16.0,,j,3009,blicket_images/dc.jpg,141138,blicket,26,image-keyboard-response,
900,lc_lc,True,1,lc_lc,,f,off,blicket_images/ds.jpg,,0.0-18.0,,f,1574,blicket_images/ds.jpg,143820,blicket,28,image-keyboard-response,
900,lc_lc,False,0,lc_lc,,j,on,blicket_images/lc.jpg,,0.0-20.0,,f,991,blicket_images/lc.jpg,146842,blicket,30,image-keyboard-response,
900,lc_lc,True,1,lc_lc,,f,off,blicket_images/ds.jpg,,0.0-22.0,,f,1139,blicket_images/ds.jpg,149712,blicket,32,image-keyboard-response,
900,lc_lc,True,1,lc_lc,,f,off,blicket_images/dc.jpg,,0.0-24.0,,f,1405,blicket_images/dc.jpg,153490,blicket,34,image-keyboard-response,
900,lc_lc,True,1,lc_lc,,j,on,blicket_images/lc.jpg,,0.0-26.0,,j,1796,blicket_images/lc.jpg,156480,blicket,36,image-keyboard-response,
900,lc_lc,True,1,lc_lc,,f,off,blicket_images/ls.jpg,,0.0-28.0,,f,1173,blicket_images/ls.jpg,158710,blicket,38,image-keyboard-response,
900,lc_lc,True,1,lc_lc,,f,off,blicket_images/dc.jpg,,0.0-30.0,,f,1082,blicket_images/dc.jpg,161051,blicket,40,image-keyboard-response,
900,lc_lc,False,0,lc_lc,,f,off,blicket_images/ls.jpg,,0.0-32.0,,j,1146,blicket_images/ls.jpg,163084,blicket,42,image-keyboard-response,
900,lc_lc,True,1,lc_lc,,f,off,blicket_images/ds.jpg,,0.0-34.0,,f,1107,blicket_images/ds.jpg,165080,blicket,44,image-keyboard-response,
900,lc_lc,False,0,lc_lc,,j,on,blicket_images/lc.jpg,,0.0-36.0,,f,1880,blicket_images/lc.jpg,168032,blicket,46,image-keyboard-response,
900,lc_lc,False,0,lc_lc,blicket_images/lc.jpg,,lc,,blicket_images/ds.jpg,0.0-37.0,,ds,8391,"Which of these options shows the image from the last trial, that you just saw?",176425,pop_quiz,47,html-button-response,
900,lc_lc,True,1,lc_lc,,,['lc'],,,0.0-38.0,[0],['lc'],7255,,183685,rule_question,48,survey-multi-select,
982,lc_lc,False,0,lc_lc,,f,off,blicket_images/dc.jpg,,0.0-6.0,,j,3224,blicket_images/dc.jpg,54211,blicket,10,image-keyboard-response,
982,lc_lc,True,1,lc_lc,,j,on,blicket_images/lc.jpg,,0.0-8.0,,j,1559,blicket_images/lc.jpg,58524,blicket,12,image-keyboard-response,
982,lc_lc,True,1,lc_lc,,f,off,blicket_images/dc.jpg,,0.0-10.0,,f,2143,blicket_images/dc.jpg,63981,blicket,14,image-keyboard-response,
982,lc_lc,False,0,lc_lc,,f,off,blicket_images/ls.jpg,,0.0-12.0,,j,1189,blicket_images/ls.jpg,66324,blicket,16,image-keyboard-response,
982,lc_lc,False,0,lc_lc,,f,off,blicket_images/ds.jpg,,0.0-14.0,,j,2191,blicket_images/ds.jpg,70813,blicket,18,image-keyboard-response,
982,lc_lc,True,1,lc_lc,,f,off,blicket_images/ls.jpg,,0.0-16.0,,f,1767,blicket_images/ls.jpg,73645,blicket,20,image-keyboard-response,
982,lc_lc,True,1,lc_lc,,f,off,blicket_images/dc.jpg,,0.0-18.0,,f,1134,blicket_images/dc.jpg,75796,blicket,22,image-keyboard-response,
982,lc_lc,True,1,lc_lc,,f,off,blicket_images/ds.jpg,,0.0-20.0,,f,766,blicket_images/ds.jpg,77508,blicket,24,image-keyboard-response,
982,lc_lc,True,1,lc_lc,,f,off,blicket_images/dc.jpg,,0.0-22.0,,f,880,blicket_images/dc.jpg,79149,blicket,26,image-keyboard-response,
982,lc_lc,True,1,lc_lc,,j,on,blicket_images/lc.jpg,,0.0-24.0,,j,780,blicket_images/lc.jpg,80708,blicket,28,image-keyboard-response,
982,lc_lc,True,1,lc_lc,,f,off,blicket_images/ls.jpg,,0.0-26.0,,f,1120,blicket_images/ls.jpg,83260,blicket,30,image-keyboard-response,
982,lc_lc,True,1,lc_lc,,j,on,blicket_images/lc.jpg,,0.0-28.0,,j,692,blicket_images/lc.jpg,84613,blicket,32,image-keyboard-response,
982,lc_lc,True,1,lc_lc,,f,off,blicket_images/ds.jpg,,0.0-30.0,,f,686,blicket_images/ds.jpg,85916,blicket,34,image-keyboard-response,
982,lc_lc,True,1,lc_lc,,j,on,blicket_images/lc.jpg,,0.0-32.0,,j,803,blicket_images/lc.jpg,87300,blicket,36,image-keyboard-response,
982,lc_lc,True,1,lc_lc,,f,off,blicket_images/dc.jpg,,0.0-34.0,,f,1122,blicket_images/dc.jpg,89115,blicket,38,image-keyboard-response,
982,lc_lc,True,1,lc_lc,,j,on,blicket_images/lc.jpg,,0.0-36.0,,j,630,blicket_images/lc.jpg,90331,blicket,40,image-keyboard-response,
982,lc_lc,True,1,lc_lc,blicket_images/lc.jpg,,lc,,blicket_images/lc.jpg,0.0-37.0,,lc,4504,"Which of these options shows the image from the last trial, that you just saw?",94838,pop_quiz,41,html-button-response,
982,lc_lc,True,1,lc_lc,,,['lc'],,,0.0-38.0,[0],['lc'],3143,,97987,rule_question,42,survey-multi-select,
860,lc_lc,False,0,lc_lc,,f,off,blicket_images/ls.jpg,,0.0-6.0,,j,2675,blicket_images/ls.jpg,62897,blicket,10,image-keyboard-response,
860,lc_lc,False,0,lc_lc,,j,on,blicket_images/lc.jpg,,0.0-8.0,,f,2251,blicket_images/lc.jpg,68065,blicket,12,image-keyboard-response,
860,lc_lc,False,0,lc_lc,,f,off,blicket_images/dc.jpg,,0.0-10.0,,j,1463,blicket_images/dc.jpg,71224,blicket,14,image-keyboard-response,
860,lc_lc,False,0,lc_lc,,f,off,blicket_images/ds.jpg,,0.0-12.0,,j,2239,blicket_images/ds.jpg,75041,blicket,16,image-keyboard-response,
860,lc_lc,True,1,lc_lc,,j,on,blicket_images/lc.jpg,,0.0-14.0,,j,1691,blicket_images/lc.jpg,77529,blicket,18,image-keyboard-response,
860,lc_lc,True,1,lc_lc,,f,off,blicket_images/ds.jpg,,0.0-16.0,,f,948,blicket_images/ds.jpg,79537,blicket,20,image-keyboard-response,
860,lc_lc,True,1,lc_lc,,j,on,blicket_images/lc.jpg,,0.0-18.0,,j,1076,blicket_images/lc.jpg,82472,blicket,22,image-keyboard-response,
860,lc_lc,True,1,lc_lc,,f,off,blicket_images/dc.jpg,,0.0-20.0,,f,566,blicket_images/dc.jpg,83745,blicket,24,image-keyboard-response,
860,lc_lc,True,1,lc_lc,,f,off,blicket_images/ls.jpg,,0.0-22.0,,f,764,blicket_images/ls.jpg,85257,blicket,26,image-keyboard-response,
860,lc_lc,True,1,lc_lc,,f,off,blicket_images/dc.jpg,,0.0-24.0,,f,1069,blicket_images/dc.jpg,87016,blicket,28,image-keyboard-response,
860,lc_lc,True,1,lc_lc,,f,off,blicket_images/ds.jpg,,0.0-26.0,,f,797,blicket_images/ds.jpg,88640,blicket,30,image-keyboard-response,
860,lc_lc,True,1,lc_lc,,j,on,blicket_images/lc.jpg,,0.0-28.0,,j,597,blicket_images/lc.jpg,90016,blicket,32,image-keyboard-response,
860,lc_lc,True,1,lc_lc,,f,off,blicket_images/ds.jpg,,0.0-30.0,,f,509,blicket_images/ds.jpg,90920,blicket,34,image-keyboard-response,
860,lc_lc,True,1,lc_lc,,f,off,blicket_images/ls.jpg,,0.0-32.0,,f,877,blicket_images/ls.jpg,92568,blicket,36,image-keyboard-response,
860,lc_lc,True,1,lc_lc,,f,off,blicket_images/dc.jpg,,0.0-34.0,,f,1030,blicket_images/dc.jpg,93960,blicket,38,image-keyboard-response,
860,lc_lc,True,1,lc_lc,,j,on,blicket_images/lc.jpg,,0.0-36.0,,j,569,blicket_images/lc.jpg,95032,blicket,40,image-keyboard-response,
860,lc_lc,True,1,lc_lc,blicket_images/lc.jpg,,lc,,blicket_images/lc.jpg,0.0-37.0,,lc,5360,"Which of these options shows the image from the last trial, that you just saw?",100395,pop_quiz,41,html-button-response,
860,lc_lc,True,1,lc_lc,,,['lc'],,,0.0-38.0,[0],['lc'],3067,,103469,rule_question,42,survey-multi-select,
949,lc_lc,True,1,lc_lc,,j,on,blicket_images/lc.jpg,,0.0-6.0,,j,2641,blicket_images/lc.jpg,55838,blicket,10,image-keyboard-response,
949,lc_lc,False,0,lc_lc,,f,off,blicket_images/dc.jpg,,0.0-8.0,,j,1854,blicket_images/dc.jpg,59306,blicket,12,image-keyboard-response,
949,lc_lc,True,1,lc_lc,,f,off,blicket_images/ds.jpg,,0.0-10.0,,f,706,blicket_images/ds.jpg,60707,blicket,14,image-keyboard-response,
949,lc_lc,True,1,lc_lc,,j,on,blicket_images/lc.jpg,,0.0-12.0,,j,665,blicket_images/lc.jpg,61985,blicket,16,image-keyboard-response,
949,lc_lc,True,1,lc_lc,,f,off,blicket_images/dc.jpg,,0.0-14.0,,f,545,blicket_images/dc.jpg,63138,blicket,18,image-keyboard-response,
949,lc_lc,True,1,lc_lc,,f,off,blicket_images/ds.jpg,,0.0-16.0,,f,672,blicket_images/ds.jpg,65129,blicket,20,image-keyboard-response,
949,lc_lc,True,1,lc_lc,,j,on,blicket_images/lc.jpg,,0.0-18.0,,j,740,blicket_images/lc.jpg,66215,blicket,22,image-keyboard-response,
949,lc_lc,True,1,lc_lc,,f,off,blicket_images/ds.jpg,,0.0-20.0,,f,412,blicket_images/ds.jpg,66922,blicket,24,image-keyboard-response,
949,lc_lc,False,0,lc_lc,,f,off,blicket_images/ls.jpg,,0.0-22.0,,j,596,blicket_images/ls.jpg,67870,blicket,26,image-keyboard-response,
949,lc_lc,True,1,lc_lc,,f,off,blicket_images/dc.jpg,,0.0-24.0,,f,467,blicket_images/dc.jpg,68765,blicket,28,image-keyboard-response,
949,lc_lc,True,1,lc_lc,,f,off,blicket_images/ds.jpg,,0.0-26.0,,f,480,blicket_images/ds.jpg,69593,blicket,30,image-keyboard-response,
949,lc_lc,False,0,lc_lc,,f,off,blicket_images/ls.jpg,,0.0-28.0,,j,479,blicket_images/ls.jpg,70389,blicket,32,image-keyboard-response,
949,lc_lc,True,1,lc_lc,,f,off,blicket_images/dc.jpg,,0.0-30.0,,f,511,blicket_images/dc.jpg,71348,blicket,34,image-keyboard-response,
949,lc_lc,False,0,lc_lc,,f,off,blicket_images/ls.jpg,,0.0-32.0,,j,417,blicket_images/ls.jpg,72066,blicket,36,image-keyboard-response,
949,lc_lc,True,1,lc_lc,,f,off,blicket_images/dc.jpg,,0.0-34.0,,f,3401,blicket_images/dc.jpg,75873,blicket,38,image-keyboard-response,
949,lc_lc,True,1,lc_lc,,j,on,blicket_images/lc.jpg,,0.0-36.0,,j,663,blicket_images/lc.jpg,76935,blicket,40,image-keyboard-response,
949,lc_lc,True,1,lc_lc,blicket_images/lc.jpg,,lc,,blicket_images/lc.jpg,0.0-37.0,,lc,1979,"Which of these options shows the image from the last trial, that you just saw?",78915,pop_quiz,41,html-button-response,
949,lc_lc,False,0,lc_lc,,,['lc'],,,0.0-38.0,[0],"['lc', 'ls']",2925,,81843,rule_question,42,survey-multi-select,
932,lc_lc,True,1,lc_lc,,j,on,blicket_images/lc.jpg,,0.0-6.0,,j,4165,blicket_images/lc.jpg,101265,blicket,10,image-keyboard-response,
932,lc_lc,True,1,lc_lc,,f,off,blicket_images/ds.jpg,,0.0-8.0,,f,2070,blicket_images/ds.jpg,105862,blicket,12,image-keyboard-response,
932,lc_lc,True,1,lc_lc,,j,on,blicket_images/lc.jpg,,0.0-10.0,,j,1721,blicket_images/lc.jpg,110689,blicket,14,image-keyboard-response,
932,lc_lc,True,1,lc_lc,,f,off,blicket_images/ds.jpg,,0.0-12.0,,f,878,blicket_images/ds.jpg,113241,blicket,16,image-keyboard-response,
932,lc_lc,False,0,lc_lc,,f,off,blicket_images/ls.jpg,,0.0-14.0,,j,2181,blicket_images/ls.jpg,116622,blicket,18,image-keyboard-response,
932,lc_lc,True,1,lc_lc,,f,off,blicket_images/dc.jpg,,0.0-16.0,,f,1881,blicket_images/dc.jpg,120842,blicket,20,image-keyboard-response,
932,lc_lc,True,1,lc_lc,,j,on,blicket_images/lc.jpg,,0.0-18.0,,j,1366,blicket_images/lc.jpg,124498,blicket,22,image-keyboard-response,
932,lc_lc,True,1,lc_lc,,f,off,blicket_images/ds.jpg,,0.0-20.0,,f,2342,blicket_images/ds.jpg,129105,blicket,24,image-keyboard-response,
932,lc_lc,False,0,lc_lc,,f,off,blicket_images/dc.jpg,,0.0-22.0,,j,3082,blicket_images/dc.jpg,133949,blicket,26,image-keyboard-response,
932,lc_lc,True,1,lc_lc,,j,on,blicket_images/lc.jpg,,0.0-24.0,,j,829,blicket_images/lc.jpg,137068,blicket,28,image-keyboard-response,
932,lc_lc,True,1,lc_lc,,f,off,blicket_images/ls.jpg,,0.0-26.0,,f,1601,blicket_images/ls.jpg,139669,blicket,30,image-keyboard-response,
932,lc_lc,True,1,lc_lc,,f,off,blicket_images/dc.jpg,,0.0-28.0,,f,2137,blicket_images/dc.jpg,142979,blicket,32,image-keyboard-response,
932,lc_lc,False,0,lc_lc,,f,off,blicket_images/ls.jpg,,0.0-30.0,,j,1979,blicket_images/ls.jpg,145810,blicket,34,image-keyboard-response,
932,lc_lc,True,1,lc_lc,,f,off,blicket_images/dc.jpg,,0.0-32.0,,f,1372,blicket_images/dc.jpg,148424,blicket,36,image-keyboard-response,
932,lc_lc,True,1,lc_lc,,f,off,blicket_images/ls.jpg,,0.0-34.0,,f,931,blicket_images/ls.jpg,150254,blicket,38,image-keyboard-response,
932,lc_lc,True,1,lc_lc,,j,on,blicket_images/lc.jpg,,0.0-36.0,,j,951,blicket_images/lc.jpg,152075,blicket,40,image-keyboard-response,
932,lc_lc,True,1,lc_lc,blicket_images/lc.jpg,,lc,,blicket_images/lc.jpg,0.0-37.0,,lc,14974,"Which of these options shows the image from the last trial, that you just saw?",167050,pop_quiz,41,html-button-response,
932,lc_lc,True,1,lc_lc,,,['lc'],,,0.0-38.0,[0],['lc'],10150,,177203,rule_question,42,survey-multi-select,
908,lc_lc,True,1,lc_lc,,f,off,blicket_images/ds.jpg,,0.0-6.0,,f,4002,blicket_images/ds.jpg,78564,blicket,10,image-keyboard-response,
908,lc_lc,True,1,lc_lc,,f,off,blicket_images/dc.jpg,,0.0-8.0,,f,6002,blicket_images/dc.jpg,86307,blicket,12,image-keyboard-response,
908,lc_lc,True,1,lc_lc,,f,off,blicket_images/ds.jpg,,0.0-10.0,,f,912,blicket_images/ds.jpg,88171,blicket,14,image-keyboard-response,
908,lc_lc,True,1,lc_lc,,f,off,blicket_images/ls.jpg,,0.0-12.0,,f,2190,blicket_images/ls.jpg,90922,blicket,16,image-keyboard-response,
908,lc_lc,True,1,lc_lc,,j,on,blicket_images/lc.jpg,,0.0-14.0,,j,713,blicket_images/lc.jpg,92457,blicket,18,image-keyboard-response,
908,lc_lc,True,1,lc_lc,,f,off,blicket_images/ls.jpg,,0.0-16.0,,f,1486,blicket_images/ls.jpg,95062,blicket,20,image-keyboard-response,
908,lc_lc,True,1,lc_lc,,j,on,blicket_images/lc.jpg,,0.0-18.0,,j,669,blicket_images/lc.jpg,96406,blicket,22,image-keyboard-response,
908,lc_lc,True,1,lc_lc,,f,off,blicket_images/dc.jpg,,0.0-20.0,,f,629,blicket_images/dc.jpg,97747,blicket,24,image-keyboard-response,
908,lc_lc,True,1,lc_lc,,f,off,blicket_images/ls.jpg,,0.0-22.0,,f,981,blicket_images/ls.jpg,99131,blicket,26,image-keyboard-response,
908,lc_lc,True,1,lc_lc,,j,on,blicket_images/lc.jpg,,0.0-24.0,,j,667,blicket_images/lc.jpg,100204,blicket,28,image-keyboard-response,
908,lc_lc,True,1,lc_lc,,f,off,blicket_images/ls.jpg,,0.0-26.0,,f,732,blicket_images/ls.jpg,101410,blicket,30,image-keyboard-response,
908,lc_lc,True,1,lc_lc,,f,off,blicket_images/dc.jpg,,0.0-28.0,,f,602,blicket_images/dc.jpg,102439,blicket,32,image-keyboard-response,
908,lc_lc,False,0,lc_lc,,j,on,blicket_images/lc.jpg,,0.0-30.0,,f,585,blicket_images/lc.jpg,103405,blicket,34,image-keyboard-response,
908,lc_lc,True,1,lc_lc,,f,off,blicket_images/ds.jpg,,0.0-32.0,,f,794,blicket_images/ds.jpg,104978,blicket,36,image-keyboard-response,
908,lc_lc,True,1,lc_lc,,f,off,blicket_images/dc.jpg,,0.0-34.0,,f,457,blicket_images/dc.jpg,105840,blicket,38,image-keyboard-response,
908,lc_lc,True,1,lc_lc,,j,on,blicket_images/lc.jpg,,0.0-36.0,,j,584,blicket_images/lc.jpg,106873,blicket,40,image-keyboard-response,
908,lc_lc,True,1,lc_lc,blicket_images/lc.jpg,,lc,,blicket_images/lc.jpg,0.0-37.0,,lc,5191,"Which of these options shows the image from the last trial, that you just saw?",112070,pop_quiz,41,html-button-response,
908,lc_lc,True,1,lc_lc,,,['lc'],,,0.0-38.0,[0],['lc'],3619,,115713,rule_question,42,survey-multi-select,
958,lc_lc,False,0,lc_lc,,f,off,blicket_images/dc.jpg,,0.0-6.0,,j,2911,blicket_images/dc.jpg,131807,blicket,28,image-keyboard-response,
958,lc_lc,False,0,lc_lc,,f,off,blicket_images/ls.jpg,,0.0-8.0,,j,1627,blicket_images/ls.jpg,135891,blicket,30,image-keyboard-response,
958,lc_lc,True,1,lc_lc,,f,off,blicket_images/dc.jpg,,0.0-10.0,,f,4716,blicket_images/dc.jpg,142079,blicket,32,image-keyboard-response,
958,lc_lc,False,0,lc_lc,,j,on,blicket_images/lc.jpg,,0.0-12.0,,f,2148,blicket_images/lc.jpg,146259,blicket,34,image-keyboard-response,
958,lc_lc,True,1,lc_lc,,f,off,blicket_images/ls.jpg,,0.0-14.0,,f,1413,blicket_images/ls.jpg,148559,blicket,36,image-keyboard-response,
958,lc_lc,False,0,lc_lc,,f,off,blicket_images/ds.jpg,,0.0-16.0,,j,1170,blicket_images/ds.jpg,150483,blicket,38,image-keyboard-response,
958,lc_lc,True,1,lc_lc,,f,off,blicket_images/dc.jpg,,0.0-18.0,,f,2174,blicket_images/dc.jpg,153242,blicket,40,image-keyboard-response,
958,lc_lc,True,1,lc_lc,,f,off,blicket_images/ls.jpg,,0.0-20.0,,f,1338,blicket_images/ls.jpg,155226,blicket,42,image-keyboard-response,
958,lc_lc,True,1,lc_lc,,j,on,blicket_images/lc.jpg,,0.0-22.0,,j,1253,blicket_images/lc.jpg,157201,blicket,44,image-keyboard-response,
958,lc_lc,True,1,lc_lc,,f,off,blicket_images/ls.jpg,,0.0-24.0,,f,1227,blicket_images/ls.jpg,159124,blicket,46,image-keyboard-response,
958,lc_lc,False,0,lc_lc,,f,off,blicket_images/ds.jpg,,0.0-26.0,,j,1478,blicket_images/ds.jpg,161354,blicket,48,image-keyboard-response,
958,lc_lc,True,1,lc_lc,,f,off,blicket_images/dc.jpg,,0.0-28.0,,f,1111,blicket_images/dc.jpg,163022,blicket,50,image-keyboard-response,
958,lc_lc,False,0,lc_lc,,j,on,blicket_images/lc.jpg,,0.0-30.0,,f,1136,blicket_images/lc.jpg,164703,blicket,52,image-keyboard-response,
958,lc_lc,True,1,lc_lc,,f,off,blicket_images/ds.jpg,,0.0-32.0,,f,1066,blicket_images/ds.jpg,166345,blicket,54,image-keyboard-response,
958,lc_lc,False,0,lc_lc,,f,off,blicket_images/ls.jpg,,0.0-34.0,,j,1157,blicket_images/ls.jpg,168045,blicket,56,image-keyboard-response,
958,lc_lc,True,1,lc_lc,,j,on,blicket_images/lc.jpg,,0.0-36.0,,j,985,blicket_images/lc.jpg,169613,blicket,58,image-keyboard-response,
958,lc_lc,True,1,lc_lc,blicket_images/lc.jpg,,lc,,blicket_images/lc.jpg,0.0-37.0,,lc,3489,"Which of these options shows the image from the last trial, that you just saw?",173105,pop_quiz,59,html-button-response,
958,lc_lc,False,0,lc_lc,,,['lc'],,,0.0-38.0,[0],['dc'],3201,,176310,rule_question,60,survey-multi-select,
975,lc_lc,True,1,lc_lc,,j,on,blicket_images/lc.jpg,,0.0-6.0,,j,1864,blicket_images/lc.jpg,74166,blicket,10,image-keyboard-response,
975,lc_lc,True,1,lc_lc,,f,off,blicket_images/dc.jpg,,0.0-8.0,,f,1210,blicket_images/dc.jpg,79168,blicket,12,image-keyboard-response,
975,lc_lc,False,0,lc_lc,,f,off,blicket_images/ds.jpg,,0.0-10.0,,j,1413,blicket_images/ds.jpg,81442,blicket,14,image-keyboard-response,
975,lc_lc,True,1,lc_lc,,j,on,blicket_images/lc.jpg,,0.0-12.0,,j,1138,blicket_images/lc.jpg,83446,blicket,16,image-keyboard-response,
975,lc_lc,True,1,lc_lc,,f,off,blicket_images/ds.jpg,,0.0-14.0,,f,1014,blicket_images/ds.jpg,85365,blicket,18,image-keyboard-response,
975,lc_lc,True,1,lc_lc,,j,on,blicket_images/lc.jpg,,0.0-16.0,,j,1020,blicket_images/lc.jpg,87259,blicket,20,image-keyboard-response,
975,lc_lc,False,0,lc_lc,,f,off,blicket_images/ls.jpg,,0.0-18.0,,j,1007,blicket_images/ls.jpg,88897,blicket,22,image-keyboard-response,
975,lc_lc,True,1,lc_lc,,f,off,blicket_images/ds.jpg,,0.0-20.0,,f,1191,blicket_images/ds.jpg,90907,blicket,24,image-keyboard-response,
975,lc_lc,True,1,lc_lc,,j,on,blicket_images/lc.jpg,,0.0-22.0,,j,849,blicket_images/lc.jpg,92366,blicket,26,image-keyboard-response,
975,lc_lc,True,1,lc_lc,,f,off,blicket_images/dc.jpg,,0.0-24.0,,f,805,blicket_images/dc.jpg,93712,blicket,28,image-keyboard-response,
975,lc_lc,True,1,lc_lc,,f,off,blicket_images/ls.jpg,,0.0-26.0,,f,1608,blicket_images/ls.jpg,95876,blicket,30,image-keyboard-response,
975,lc_lc,True,1,lc_lc,,f,off,blicket_images/dc.jpg,,0.0-28.0,,f,1206,blicket_images/dc.jpg,97638,blicket,32,image-keyboard-response,
975,lc_lc,True,1,lc_lc,,f,off,blicket_images/ls.jpg,,0.0-30.0,,f,1135,blicket_images/ls.jpg,99263,blicket,34,image-keyboard-response,
975,lc_lc,True,1,lc_lc,,f,off,blicket_images/dc.jpg,,0.0-32.0,,f,1217,blicket_images/dc.jpg,100996,blicket,36,image-keyboard-response,
975,lc_lc,True,1,lc_lc,,f,off,blicket_images/ds.jpg,,0.0-34.0,,f,886,blicket_images/ds.jpg,102380,blicket,38,image-keyboard-response,
975,lc_lc,True,1,lc_lc,,j,on,blicket_images/lc.jpg,,0.0-36.0,,j,837,blicket_images/lc.jpg,103685,blicket,40,image-keyboard-response,
975,lc_lc,True,1,lc_lc,blicket_images/lc.jpg,,lc,,blicket_images/lc.jpg,0.0-37.0,,lc,3817,"Which of these options shows the image from the last trial, that you just saw?",107503,pop_quiz,41,html-button-response,
975,lc_lc,True,1,lc_lc,,,['lc'],,,0.0-38.0,[0],['lc'],5341,,112849,rule_question,42,survey-multi-select,
956,ds_ds,False,0,ds_ds,,f,off,blicket_images/lc.jpg,,0.0-6.0,,j,3074,blicket_images/lc.jpg,83777,blicket,10,image-keyboard-response,
956,ds_ds,False,0,ds_ds,,f,off,blicket_images/dc.jpg,,0.0-8.0,,j,2236,blicket_images/dc.jpg,87695,blicket,12,image-keyboard-response,
956,ds_ds,False,0,ds_ds,,f,off,blicket_images/ls.jpg,,0.0-10.0,,j,1741,blicket_images/ls.jpg,90389,blicket,14,image-keyboard-response,
956,ds_ds,True,1,ds_ds,,f,off,blicket_images/dc.jpg,,0.0-12.0,,f,1409,blicket_images/dc.jpg,93397,blicket,16,image-keyboard-response,
956,ds_ds,True,1,ds_ds,,j,on,blicket_images/ds.jpg,,0.0-14.0,,j,1406,blicket_images/ds.jpg,95957,blicket,18,image-keyboard-response,
956,ds_ds,True,1,ds_ds,,f,off,blicket_images/dc.jpg,,0.0-16.0,,f,1184,blicket_images/dc.jpg,98803,blicket,20,image-keyboard-response,
956,ds_ds,True,1,ds_ds,,f,off,blicket_images/ls.jpg,,0.0-18.0,,f,974,blicket_images/ls.jpg,100603,blicket,22,image-keyboard-response,
956,ds_ds,True,1,ds_ds,,f,off,blicket_images/lc.jpg,,0.0-20.0,,f,761,blicket_images/lc.jpg,102154,blicket,24,image-keyboard-response,
956,ds_ds,True,1,ds_ds,,j,on,blicket_images/ds.jpg,,0.0-22.0,,j,860,blicket_images/ds.jpg,103585,blicket,26,image-keyboard-response,
956,ds_ds,True,1,ds_ds,,f,off,blicket_images/lc.jpg,,0.0-24.0,,f,1039,blicket_images/lc.jpg,105358,blicket,28,image-keyboard-response,
956,ds_ds,True,1,ds_ds,,f,off,blicket_images/ls.jpg,,0.0-26.0,,f,723,blicket_images/ls.jpg,106731,blicket,30,image-keyboard-response,
956,ds_ds,True,1,ds_ds,,f,off,blicket_images/dc.jpg,,0.0-28.0,,f,1254,blicket_images/dc.jpg,108602,blicket,32,image-keyboard-response,
956,ds_ds,True,1,ds_ds,,f,off,blicket_images/ls.jpg,,0.0-30.0,,f,830,blicket_images/ls.jpg,109895,blicket,34,image-keyboard-response,
956,ds_ds,True,1,ds_ds,,j,on,blicket_images/ds.jpg,,0.0-32.0,,j,898,blicket_images/ds.jpg,111391,blicket,36,image-keyboard-response,
956,ds_ds,True,1,ds_ds,,f,off,blicket_images/ls.jpg,,0.0-34.0,,f,875,blicket_images/ls.jpg,113156,blicket,38,image-keyboard-response,
956,ds_ds,True,1,ds_ds,,j,on,blicket_images/ds.jpg,,0.0-36.0,,j,1111,blicket_images/ds.jpg,114947,blicket,40,image-keyboard-response,
956,ds_ds,True,1,ds_ds,blicket_images/ds.jpg,,ds,,blicket_images/ds.jpg,0.0-37.0,,ds,5136,"Which of these options shows the image from the last trial, that you just saw?",120085,pop_quiz,41,html-button-response,
956,ds_ds,True,1,ds_ds,,,['ds'],,,0.0-38.0,[0],['ds'],4247,,124335,rule_question,42,survey-multi-select,
939,ds_ds,True,1,ds_ds,,f,off,blicket_images/dc.jpg,,0.0-6.0,,f,7204,blicket_images/dc.jpg,89889,blicket,10,image-keyboard-response,
939,ds_ds,False,0,ds_ds,,f,off,blicket_images/lc.jpg,,0.0-8.0,,j,3151,blicket_images/lc.jpg,95209,blicket,12,image-keyboard-response,
939,ds_ds,True,1,ds_ds,,j,on,blicket_images/ds.jpg,,0.0-10.0,,j,3400,blicket_images/ds.jpg,101937,blicket,14,image-keyboard-response,
939,ds_ds,True,1,ds_ds,,f,off,blicket_images/lc.jpg,,0.0-12.0,,f,1695,blicket_images/lc.jpg,105512,blicket,16,image-keyboard-response,
939,ds_ds,True,1,ds_ds,,j,on,blicket_images/ds.jpg,,0.0-14.0,,j,2463,blicket_images/ds.jpg,109249,blicket,18,image-keyboard-response,
939,ds_ds,True,1,ds_ds,,f,off,blicket_images/dc.jpg,,0.0-16.0,,f,1656,blicket_images/dc.jpg,113313,blicket,20,image-keyboard-response,
939,ds_ds,True,1,ds_ds,,j,on,blicket_images/ds.jpg,,0.0-18.0,,j,1448,blicket_images/ds.jpg,115681,blicket,22,image-keyboard-response,
939,ds_ds,True,1,ds_ds,,f,off,blicket_images/dc.jpg,,0.0-20.0,,f,704,blicket_images/dc.jpg,117129,blicket,24,image-keyboard-response,
939,ds_ds,True,1,ds_ds,,j,on,blicket_images/ds.jpg,,0.0-22.0,,j,1120,blicket_images/ds.jpg,118889,blicket,26,image-keyboard-response,
939,ds_ds,False,0,ds_ds,,f,off,blicket_images/ls.jpg,,0.0-24.0,,j,1199,blicket_images/ls.jpg,120688,blicket,28,image-keyboard-response,
939,ds_ds,True,1,ds_ds,,f,off,blicket_images/lc.jpg,,0.0-26.0,,f,2831,blicket_images/lc.jpg,127977,blicket,30,image-keyboard-response,
939,ds_ds,True,1,ds_ds,,f,off,blicket_images/ls.jpg,,0.0-28.0,,f,2031,blicket_images/ls.jpg,130728,blicket,32,image-keyboard-response,
939,ds_ds,True,1,ds_ds,,f,off,blicket_images/dc.jpg,,0.0-30.0,,f,2215,blicket_images/dc.jpg,133552,blicket,34,image-keyboard-response,
939,ds_ds,True,1,ds_ds,,f,off,blicket_images/ls.jpg,,0.0-32.0,,f,1262,blicket_images/ls.jpg,135361,blicket,36,image-keyboard-response,
939,ds_ds,True,1,ds_ds,,f,off,blicket_images/dc.jpg,,0.0-34.0,,f,1032,blicket_images/dc.jpg,136889,blicket,38,image-keyboard-response,
939,ds_ds,True,1,ds_ds,,j,on,blicket_images/ds.jpg,,0.0-36.0,,j,840,blicket_images/ds.jpg,138337,blicket,40,image-keyboard-response,
939,ds_ds,True,1,ds_ds,blicket_images/ds.jpg,,ds,,blicket_images/ds.jpg,0.0-37.0,,ds,5957,"Which of these options shows the image from the last trial, that you just saw?",144295,pop_quiz,41,html-button-response,
939,ds_ds,True,1,ds_ds,,,['ds'],,,0.0-38.0,[0],['ds'],3945,,148243,rule_question,42,survey-multi-select,
891,ds_ds,True,1,ds_ds,,j,on,blicket_images/ds.jpg,,0.0-6.0,,j,15847,blicket_images/ds.jpg,101920,blicket,10,image-keyboard-response,
891,ds_ds,True,1,ds_ds,,f,off,blicket_images/ls.jpg,,0.0-8.0,,f,3646,blicket_images/ls.jpg,109993,blicket,12,image-keyboard-response,
891,ds_ds,True,1,ds_ds,,j,on,blicket_images/ds.jpg,,0.0-10.0,,j,3212,blicket_images/ds.jpg,118465,blicket,14,image-keyboard-response,
891,ds_ds,False,0,ds_ds,,f,off,blicket_images/dc.jpg,,0.0-12.0,,j,4902,blicket_images/dc.jpg,124806,blicket,16,image-keyboard-response,
891,ds_ds,False,0,ds_ds,,f,off,blicket_images/lc.jpg,,0.0-14.0,,j,1884,blicket_images/lc.jpg,131054,blicket,18,image-keyboard-response,
891,ds_ds,True,1,ds_ds,,f,off,blicket_images/dc.jpg,,0.0-16.0,,f,1648,blicket_images/dc.jpg,140080,blicket,20,image-keyboard-response,
891,ds_ds,True,1,ds_ds,,f,off,blicket_images/ls.jpg,,0.0-18.0,,f,830,blicket_images/ls.jpg,142518,blicket,22,image-keyboard-response,
891,ds_ds,True,1,ds_ds,,j,on,blicket_images/ds.jpg,,0.0-20.0,,j,830,blicket_images/ds.jpg,144062,blicket,24,image-keyboard-response,
891,ds_ds,True,1,ds_ds,,f,off,blicket_images/lc.jpg,,0.0-22.0,,f,697,blicket_images/lc.jpg,145550,blicket,26,image-keyboard-response,
891,ds_ds,True,1,ds_ds,,f,off,blicket_images/ls.jpg,,0.0-24.0,,f,654,blicket_images/ls.jpg,146878,blicket,28,image-keyboard-response,
891,ds_ds,True,1,ds_ds,,f,off,blicket_images/dc.jpg,,0.0-26.0,,f,853,blicket_images/dc.jpg,148348,blicket,30,image-keyboard-response,
891,ds_ds,True,1,ds_ds,,f,off,blicket_images/lc.jpg,,0.0-28.0,,f,934,blicket_images/lc.jpg,149918,blicket,32,image-keyboard-response,
891,ds_ds,True,1,ds_ds,,f,off,blicket_images/dc.jpg,,0.0-30.0,,f,692,blicket_images/dc.jpg,151206,blicket,34,image-keyboard-response,
891,ds_ds,True,1,ds_ds,,f,off,blicket_images/ls.jpg,,0.0-32.0,,f,694,blicket_images/ls.jpg,152438,blicket,36,image-keyboard-response,
891,ds_ds,True,1,ds_ds,,f,off,blicket_images/lc.jpg,,0.0-34.0,,f,550,blicket_images/lc.jpg,153582,blicket,38,image-keyboard-response,
891,ds_ds,True,1,ds_ds,,j,on,blicket_images/ds.jpg,,0.0-36.0,,j,693,blicket_images/ds.jpg,154933,blicket,40,image-keyboard-response,
891,ds_ds,True,1,ds_ds,blicket_images/ds.jpg,,ds,,blicket_images/ds.jpg,0.0-37.0,,ds,5547,"Which of these options shows the image from the last trial, that you just saw?",160485,pop_quiz,41,html-button-response,
891,ds_ds,True,1,ds_ds,,,['ds'],,,0.0-38.0,[0],['ds'],2794,,163286,rule_question,42,survey-multi-select,
883,ds_ds,False,0,ds_ds,,f,off,blicket_images/ls.jpg,,0.0-6.0,,j,6669,blicket_images/ls.jpg,147951,blicket,10,image-keyboard-response,
883,ds_ds,False,0,ds_ds,,f,off,blicket_images/dc.jpg,,0.0-8.0,,j,2189,blicket_images/dc.jpg,162890,blicket,12,image-keyboard-response,
883,ds_ds,False,0,ds_ds,,f,off,blicket_images/lc.jpg,,0.0-10.0,,j,4088,blicket_images/lc.jpg,173755,blicket,14,image-keyboard-response,
883,ds_ds,False,0,ds_ds,,j,on,blicket_images/ds.jpg,,0.0-12.0,,f,2231,blicket_images/ds.jpg,190875,blicket,16,image-keyboard-response,
883,ds_ds,True,1,ds_ds,,f,off,blicket_images/ls.jpg,,0.0-14.0,,f,3978,blicket_images/ls.jpg,205031,blicket,18,image-keyboard-response,
883,ds_ds,True,1,ds_ds,,f,off,blicket_images/lc.jpg,,0.0-16.0,,f,2465,blicket_images/lc.jpg,208476,blicket,20,image-keyboard-response,
883,ds_ds,True,1,ds_ds,,f,off,blicket_images/dc.jpg,,0.0-18.0,,f,1791,blicket_images/dc.jpg,211123,blicket,22,image-keyboard-response,
883,ds_ds,True,1,ds_ds,,j,on,blicket_images/ds.jpg,,0.0-20.0,,j,2850,blicket_images/ds.jpg,214498,blicket,24,image-keyboard-response,
883,ds_ds,True,1,ds_ds,,f,off,blicket_images/lc.jpg,,0.0-22.0,,f,3115,blicket_images/lc.jpg,218377,blicket,26,image-keyboard-response,
883,ds_ds,True,1,ds_ds,,f,off,blicket_images/dc.jpg,,0.0-24.0,,f,1017,blicket_images/dc.jpg,219977,blicket,28,image-keyboard-response,
883,ds_ds,True,1,ds_ds,,j,on,blicket_images/ds.jpg,,0.0-26.0,,j,1944,blicket_images/ds.jpg,222344,blicket,30,image-keyboard-response,
883,ds_ds,True,1,ds_ds,,f,off,blicket_images/dc.jpg,,0.0-28.0,,f,1437,blicket_images/dc.jpg,224354,blicket,32,image-keyboard-response,
883,ds_ds,True,1,ds_ds,,f,off,blicket_images/lc.jpg,,0.0-30.0,,f,1386,blicket_images/lc.jpg,226335,blicket,34,image-keyboard-response,
883,ds_ds,True,1,ds_ds,,f,off,blicket_images/ls.jpg,,0.0-32.0,,f,874,blicket_images/ls.jpg,227689,blicket,36,image-keyboard-response,
883,ds_ds,True,1,ds_ds,,f,off,blicket_images/lc.jpg,,0.0-34.0,,f,740,blicket_images/lc.jpg,229064,blicket,38,image-keyboard-response,
883,ds_ds,True,1,ds_ds,,j,on,blicket_images/ds.jpg,,0.0-36.0,,j,960,blicket_images/ds.jpg,230427,blicket,40,image-keyboard-response,
883,ds_ds,True,1,ds_ds,blicket_images/ds.jpg,,ds,,blicket_images/ds.jpg,0.0-37.0,,ds,3715,"Which of these options shows the image from the last trial, that you just saw?",234144,pop_quiz,41,html-button-response,
883,ds_ds,True,1,ds_ds,,,['ds'],,,0.0-38.0,[0],['ds'],4311,,238462,rule_question,42,survey-multi-select,
859,ds_ds,False,0,ds_ds,,f,off,blicket_images/ls.jpg,,0.0-6.0,,j,6050,blicket_images/ls.jpg,106655,blicket,10,image-keyboard-response,
859,ds_ds,True,1,ds_ds,,j,on,blicket_images/ds.jpg,,0.0-8.0,,j,5759,blicket_images/ds.jpg,122868,blicket,12,image-keyboard-response,
859,ds_ds,True,1,ds_ds,,f,off,blicket_images/lc.jpg,,0.0-10.0,,f,3760,blicket_images/lc.jpg,127772,blicket,14,image-keyboard-response,
859,ds_ds,True,1,ds_ds,,f,off,blicket_images/ls.jpg,,0.0-12.0,,f,3647,blicket_images/ls.jpg,135716,blicket,16,image-keyboard-response,
859,ds_ds,False,0,ds_ds,,f,off,blicket_images/dc.jpg,,0.0-14.0,,j,2013,blicket_images/dc.jpg,138652,blicket,18,image-keyboard-response,
859,ds_ds,True,1,ds_ds,,f,off,blicket_images/lc.jpg,,0.0-16.0,,f,2455,blicket_images/lc.jpg,144059,blicket,20,image-keyboard-response,
859,ds_ds,True,1,ds_ds,,j,on,blicket_images/ds.jpg,,0.0-18.0,,j,1638,blicket_images/ds.jpg,146268,blicket,22,image-keyboard-response,
859,ds_ds,True,1,ds_ds,,f,off,blicket_images/lc.jpg,,0.0-20.0,,f,2432,blicket_images/lc.jpg,149092,blicket,24,image-keyboard-response,
859,ds_ds,True,1,ds_ds,,f,off,blicket_images/dc.jpg,,0.0-22.0,,f,3039,blicket_images/dc.jpg,152660,blicket,26,image-keyboard-response,
859,ds_ds,True,1,ds_ds,,f,off,blicket_images/ls.jpg,,0.0-24.0,,f,1316,blicket_images/ls.jpg,154420,blicket,28,image-keyboard-response,
859,ds_ds,True,1,ds_ds,,j,on,blicket_images/ds.jpg,,0.0-26.0,,j,1215,blicket_images/ds.jpg,155908,blicket,30,image-keyboard-response,
859,ds_ds,True,1,ds_ds,,f,off,blicket_images/dc.jpg,,0.0-28.0,,f,1647,blicket_images/dc.jpg,157972,blicket,32,image-keyboard-response,
859,ds_ds,True,1,ds_ds,,j,on,blicket_images/ds.jpg,,0.0-30.0,,j,1200,blicket_images/ds.jpg,159556,blicket,34,image-keyboard-response,
859,ds_ds,True,1,ds_ds,,f,off,blicket_images/ls.jpg,,0.0-32.0,,f,1047,blicket_images/ls.jpg,160916,blicket,36,image-keyboard-response,
859,ds_ds,True,1,ds_ds,,f,off,blicket_images/dc.jpg,,0.0-34.0,,f,1111,blicket_images/dc.jpg,162572,blicket,38,image-keyboard-response,
859,ds_ds,True,1,ds_ds,,j,on,blicket_images/ds.jpg,,0.0-36.0,,j,1136,blicket_images/ds.jpg,164125,blicket,40,image-keyboard-response,
859,ds_ds,True,1,ds_ds,blicket_images/ds.jpg,,ds,,blicket_images/ds.jpg,0.0-37.0,,ds,7641,"Which of these options shows the image from the last trial, that you just saw?",171768,pop_quiz,41,html-button-response,
859,ds_ds,True,1,ds_ds,,,['ds'],,,0.0-38.0,[0],['ds'],3403,,175175,rule_question,42,survey-multi-select,
899,ds_ds,True,1,ds_ds,,f,off,blicket_images/ls.jpg,,0.0-6.0,,f,2099,blicket_images/ls.jpg,57827,blicket,10,image-keyboard-response,
899,ds_ds,True,1,ds_ds,,f,off,blicket_images/lc.jpg,,0.0-8.0,,f,2356,blicket_images/lc.jpg,61201,blicket,12,image-keyboard-response,
899,ds_ds,False,0,ds_ds,,f,off,blicket_images/dc.jpg,,0.0-10.0,,j,2260,blicket_images/dc.jpg,64351,blicket,14,image-keyboard-response,
899,ds_ds,True,1,ds_ds,,j,on,blicket_images/ds.jpg,,0.0-12.0,,j,1078,blicket_images/ds.jpg,66236,blicket,16,image-keyboard-response,
899,ds_ds,True,1,ds_ds,,f,off,blicket_images/ls.jpg,,0.0-14.0,,f,950,blicket_images/ls.jpg,68022,blicket,18,image-keyboard-response,
899,ds_ds,True,1,ds_ds,,f,off,blicket_images/lc.jpg,,0.0-16.0,,f,790,blicket_images/lc.jpg,69594,blicket,20,image-keyboard-response,
899,ds_ds,True,1,ds_ds,,f,off,blicket_images/ls.jpg,,0.0-18.0,,f,786,blicket_images/ls.jpg,70916,blicket,22,image-keyboard-response,
899,ds_ds,True,1,ds_ds,,f,off,blicket_images/dc.jpg,,0.0-20.0,,f,2501,blicket_images/dc.jpg,74126,blicket,24,image-keyboard-response,
899,ds_ds,True,1,ds_ds,,j,on,blicket_images/ds.jpg,,0.0-22.0,,j,621,blicket_images/ds.jpg,75349,blicket,26,image-keyboard-response,
899,ds_ds,True,1,ds_ds,,f,off,blicket_images/ls.jpg,,0.0-24.0,,f,1079,blicket_images/ls.jpg,77002,blicket,28,image-keyboard-response,
899,ds_ds,True,1,ds_ds,,f,off,blicket_images/dc.jpg,,0.0-26.0,,f,881,blicket_images/dc.jpg,78385,blicket,30,image-keyboard-response,
899,ds_ds,True,1,ds_ds,,j,on,blicket_images/ds.jpg,,0.0-28.0,,j,1186,blicket_images/ds.jpg,80058,blicket,32,image-keyboard-response,
899,ds_ds,True,1,ds_ds,,f,off,blicket_images/lc.jpg,,0.0-30.0,,f,715,blicket_images/lc.jpg,81358,blicket,34,image-keyboard-response,
899,ds_ds,True,1,ds_ds,,f,off,blicket_images/dc.jpg,,0.0-32.0,,f,715,blicket_images/dc.jpg,82667,blicket,36,image-keyboard-response,
899,ds_ds,True,1,ds_ds,,f,off,blicket_images/lc.jpg,,0.0-34.0,,f,629,blicket_images/lc.jpg,83952,blicket,38,image-keyboard-response,
899,ds_ds,True,1,ds_ds,,j,on,blicket_images/ds.jpg,,0.0-36.0,,j,933,blicket_images/ds.jpg,85353,blicket,40,image-keyboard-response,
899,ds_ds,True,1,ds_ds,blicket_images/ds.jpg,,ds,,blicket_images/ds.jpg,0.0-37.0,,ds,7231,"Which of these options shows the image from the last trial, that you just saw?",92586,pop_quiz,41,html-button-response,
899,ds_ds,True,1,ds_ds,,,['ds'],,,0.0-38.0,[0],['ds'],3462,,96055,rule_question,42,survey-multi-select,
915,ds_ds,False,0,ds_ds,,f,off,blicket_images/dc.jpg,,0.0-6.0,,j,1826,blicket_images/dc.jpg,691794,blicket,10,image-keyboard-response,
915,ds_ds,True,1,ds_ds,,j,on,blicket_images/ds.jpg,,0.0-8.0,,j,1188,blicket_images/ds.jpg,694467,blicket,12,image-keyboard-response,
915,ds_ds,False,0,ds_ds,,f,off,blicket_images/lc.jpg,,0.0-10.0,,j,1279,blicket_images/lc.jpg,696800,blicket,14,image-keyboard-response,
915,ds_ds,True,1,ds_ds,,j,on,blicket_images/ds.jpg,,0.0-12.0,,j,1123,blicket_images/ds.jpg,698726,blicket,16,image-keyboard-response,
915,ds_ds,True,1,ds_ds,,f,off,blicket_images/lc.jpg,,0.0-14.0,,f,1018,blicket_images/lc.jpg,700710,blicket,18,image-keyboard-response,
915,ds_ds,True,1,ds_ds,,f,off,blicket_images/ls.jpg,,0.0-16.0,,f,953,blicket_images/ls.jpg,702288,blicket,20,image-keyboard-response,
915,ds_ds,False,0,ds_ds,,f,off,blicket_images/dc.jpg,,0.0-18.0,,j,856,blicket_images/dc.jpg,703691,blicket,22,image-keyboard-response,
915,ds_ds,True,1,ds_ds,,j,on,blicket_images/ds.jpg,,0.0-20.0,,j,808,blicket_images/ds.jpg,705333,blicket,24,image-keyboard-response,
915,ds_ds,False,0,ds_ds,,f,off,blicket_images/ls.jpg,,0.0-22.0,,j,922,blicket_images/ls.jpg,706823,blicket,26,image-keyboard-response,
915,ds_ds,True,1,ds_ds,,j,on,blicket_images/ds.jpg,,0.0-24.0,,j,1477,blicket_images/ds.jpg,708998,blicket,28,image-keyboard-response,
915,ds_ds,True,1,ds_ds,,f,off,blicket_images/ls.jpg,,0.0-26.0,,f,1063,blicket_images/ls.jpg,710432,blicket,30,image-keyboard-response,
915,ds_ds,False,0,ds_ds,,f,off,blicket_images/dc.jpg,,0.0-28.0,,j,1445,blicket_images/dc.jpg,712328,blicket,32,image-keyboard-response,
915,ds_ds,False,0,ds_ds,,f,off,blicket_images/lc.jpg,,0.0-30.0,,j,945,blicket_images/lc.jpg,713966,blicket,34,image-keyboard-response,
915,ds_ds,False,0,ds_ds,,f,off,blicket_images/dc.jpg,,0.0-32.0,,j,689,blicket_images/dc.jpg,715346,blicket,36,image-keyboard-response,
915,ds_ds,True,1,ds_ds,,f,off,blicket_images/lc.jpg,,0.0-34.0,,f,838,blicket_images/lc.jpg,716628,blicket,38,image-keyboard-response,
915,ds_ds,True,1,ds_ds,,j,on,blicket_images/ds.jpg,,0.0-36.0,,j,902,blicket_images/ds.jpg,718148,blicket,40,image-keyboard-response,
915,ds_ds,True,1,ds_ds,blicket_images/ds.jpg,,ds,,blicket_images/ds.jpg,0.0-37.0,,ds,7828,"Which of these options shows the image from the last trial, that you just saw?",725978,pop_quiz,41,html-button-response,
915,ds_ds,True,1,ds_ds,,,['ds'],,,0.0-38.0,[0],['ds'],4722,,730705,rule_question,42,survey-multi-select,
922,ds_ds,False,0,ds_ds,,f,off,blicket_images/dc.jpg,,0.0-6.0,,j,3105,blicket_images/dc.jpg,113920,blicket,10,image-keyboard-response,
922,ds_ds,True,1,ds_ds,,f,off,blicket_images/lc.jpg,,0.0-8.0,,f,5074,blicket_images/lc.jpg,121915,blicket,12,image-keyboard-response,
922,ds_ds,False,0,ds_ds,,f,off,blicket_images/ls.jpg,,0.0-10.0,,j,2162,blicket_images/ls.jpg,126388,blicket,14,image-keyboard-response,
922,ds_ds,True,1,ds_ds,,j,on,blicket_images/ds.jpg,,0.0-12.0,,j,1408,blicket_images/ds.jpg,129251,blicket,16,image-keyboard-response,
922,ds_ds,False,0,ds_ds,,f,off,blicket_images/dc.jpg,,0.0-14.0,,j,2150,blicket_images/dc.jpg,133451,blicket,18,image-keyboard-response,
922,ds_ds,False,0,ds_ds,,f,off,blicket_images/lc.jpg,,0.0-16.0,,j,2114,blicket_images/lc.jpg,137092,blicket,20,image-keyboard-response,
922,ds_ds,False,0,ds_ds,,f,off,blicket_images/ls.jpg,,0.0-18.0,,j,1808,blicket_images/ls.jpg,139797,blicket,22,image-keyboard-response,
922,ds_ds,False,0,ds_ds,,j,on,blicket_images/ds.jpg,,0.0-20.0,,f,1637,blicket_images/ds.jpg,142208,blicket,24,image-keyboard-response,
922,ds_ds,True,1,ds_ds,,f,off,blicket_images/ls.jpg,,0.0-22.0,,f,847,blicket_images/ls.jpg,145837,blicket,26,image-keyboard-response,
922,ds_ds,True,1,ds_ds,,f,off,blicket_images/dc.jpg,,0.0-24.0,,f,1166,blicket_images/dc.jpg,148065,blicket,28,image-keyboard-response,
922,ds_ds,True,1,ds_ds,,f,off,blicket_images/lc.jpg,,0.0-26.0,,f,960,blicket_images/lc.jpg,150162,blicket,30,image-keyboard-response,
922,ds_ds,True,1,ds_ds,,f,off,blicket_images/dc.jpg,,0.0-28.0,,f,1885,blicket_images/dc.jpg,152918,blicket,32,image-keyboard-response,
922,ds_ds,False,0,ds_ds,,f,off,blicket_images/ls.jpg,,0.0-30.0,,j,1800,blicket_images/ls.jpg,156086,blicket,34,image-keyboard-response,
922,ds_ds,False,0,ds_ds,,j,on,blicket_images/ds.jpg,,0.0-32.0,,f,1544,blicket_images/ds.jpg,158558,blicket,36,image-keyboard-response,
922,ds_ds,True,1,ds_ds,,f,off,blicket_images/ls.jpg,,0.0-34.0,,f,3529,blicket_images/ls.jpg,163413,blicket,38,image-keyboard-response,
922,ds_ds,True,1,ds_ds,,j,on,blicket_images/ds.jpg,,0.0-36.0,,j,1341,blicket_images/ds.jpg,165546,blicket,40,image-keyboard-response,
922,ds_ds,False,0,ds_ds,blicket_images/ds.jpg,,ds,,blicket_images/dc.jpg,0.0-37.0,,dc,6058,"Which of these options shows the image from the last trial, that you just saw?",171606,pop_quiz,41,html-button-response,
922,ds_ds,False,0,ds_ds,,,['ds'],,,0.0-38.0,[0],"['lc', 'ls']",12391,,183995,rule_question,42,survey-multi-select,
965,ds_ds,False,0,ds_ds,,f,off,blicket_images/dc.jpg,,0.0-6.0,,j,1989,blicket_images/dc.jpg,78090,blicket,10,image-keyboard-response,
965,ds_ds,False,0,ds_ds,,f,off,blicket_images/lc.jpg,,0.0-8.0,,j,1670,blicket_images/lc.jpg,82072,blicket,12,image-keyboard-response,
965,ds_ds,False,0,ds_ds,,f,off,blicket_images/ls.jpg,,0.0-10.0,,j,1515,blicket_images/ls.jpg,85583,blicket,14,image-keyboard-response,
965,ds_ds,False,0,ds_ds,,f,off,blicket_images/dc.jpg,,0.0-12.0,,j,1115,blicket_images/dc.jpg,88711,blicket,16,image-keyboard-response,
965,ds_ds,False,0,ds_ds,,j,on,blicket_images/ds.jpg,,0.0-14.0,,f,644,blicket_images/ds.jpg,90820,blicket,18,image-keyboard-response,
965,ds_ds,False,0,ds_ds,,f,off,blicket_images/ls.jpg,,0.0-16.0,,j,1150,blicket_images/ls.jpg,94109,blicket,20,image-keyboard-response,
965,ds_ds,False,0,ds_ds,,j,on,blicket_images/ds.jpg,,0.0-18.0,,f,1572,blicket_images/ds.jpg,96942,blicket,22,image-keyboard-response,
965,ds_ds,False,0,ds_ds,,f,off,blicket_images/lc.jpg,,0.0-20.0,,j,767,blicket_images/lc.jpg,98737,blicket,24,image-keyboard-response,
965,ds_ds,True,1,ds_ds,,j,on,blicket_images/ds.jpg,,0.0-22.0,,j,765,blicket_images/ds.jpg,100584,blicket,26,image-keyboard-response,
965,ds_ds,False,0,ds_ds,,f,off,blicket_images/dc.jpg,,0.0-24.0,,j,1328,blicket_images/dc.jpg,103874,blicket,28,image-keyboard-response,
965,ds_ds,True,1,ds_ds,,j,on,blicket_images/ds.jpg,,0.0-26.0,,j,705,blicket_images/ds.jpg,105853,blicket,30,image-keyboard-response,
965,ds_ds,True,1,ds_ds,,f,off,blicket_images/lc.jpg,,0.0-28.0,,f,1222,blicket_images/lc.jpg,107766,blicket,32,image-keyboard-response,
965,ds_ds,True,1,ds_ds,,f,off,blicket_images/ls.jpg,,0.0-30.0,,f,886,blicket_images/ls.jpg,109730,blicket,34,image-keyboard-response,
965,ds_ds,True,1,ds_ds,,f,off,blicket_images/lc.jpg,,0.0-32.0,,f,1445,blicket_images/lc.jpg,111849,blicket,36,image-keyboard-response,
965,ds_ds,True,1,ds_ds,,f,off,blicket_images/ls.jpg,,0.0-34.0,,f,1288,blicket_images/ls.jpg,114106,blicket,38,image-keyboard-response,
965,ds_ds,True,1,ds_ds,,j,on,blicket_images/ds.jpg,,0.0-36.0,,j,619,blicket_images/ds.jpg,115395,blicket,40,image-keyboard-response,
965,ds_ds,True,1,ds_ds,blicket_images/ds.jpg,,ds,,blicket_images/ds.jpg,0.0-37.0,,ds,5006,"Which of these options shows the image from the last trial, that you just saw?",120407,pop_quiz,41,html-button-response,
965,ds_ds,True,1,ds_ds,,,['ds'],,,0.0-38.0,[0],['ds'],4539,,124964,rule_question,42,survey-multi-select,
981,ds_ds,False,0,ds_ds,,f,off,blicket_images/lc.jpg,,0.0-6.0,,j,4661,blicket_images/lc.jpg,255504,blicket,10,image-keyboard-response,
981,ds_ds,False,0,ds_ds,,f,off,blicket_images/dc.jpg,,0.0-8.0,,j,1740,blicket_images/dc.jpg,258989,blicket,12,image-keyboard-response,
981,ds_ds,True,1,ds_ds,,j,on,blicket_images/ds.jpg,,0.0-10.0,,j,1496,blicket_images/ds.jpg,261815,blicket,14,image-keyboard-response,
981,ds_ds,False,0,ds_ds,,f,off,blicket_images/ls.jpg,,0.0-12.0,,j,1758,blicket_images/ls.jpg,265434,blicket,16,image-keyboard-response,
981,ds_ds,True,1,ds_ds,,j,on,blicket_images/ds.jpg,,0.0-14.0,,j,1782,blicket_images/ds.jpg,268528,blicket,18,image-keyboard-response,
981,ds_ds,True,1,ds_ds,,f,off,blicket_images/dc.jpg,,0.0-16.0,,f,3223,blicket_images/dc.jpg,273455,blicket,20,image-keyboard-response,
981,ds_ds,True,1,ds_ds,,f,off,blicket_images/ls.jpg,,0.0-18.0,,f,1127,blicket_images/ls.jpg,275616,blicket,22,image-keyboard-response,
981,ds_ds,False,0,ds_ds,,f,off,blicket_images/dc.jpg,,0.0-20.0,,j,3359,blicket_images/dc.jpg,279864,blicket,24,image-keyboard-response,
981,ds_ds,False,0,ds_ds,,f,off,blicket_images/ls.jpg,,0.0-22.0,,j,2798,blicket_images/ls.jpg,283543,blicket,26,image-keyboard-response,
981,ds_ds,False,0,ds_ds,,f,off,blicket_images/lc.jpg,,0.0-24.0,,j,2106,blicket_images/lc.jpg,286599,blicket,28,image-keyboard-response,
981,ds_ds,False,0,ds_ds,,f,off,blicket_images/ls.jpg,,0.0-26.0,,j,1223,blicket_images/ls.jpg,288664,blicket,30,image-keyboard-response,
981,ds_ds,True,1,ds_ds,,j,on,blicket_images/ds.jpg,,0.0-28.0,,j,1182,blicket_images/ds.jpg,290503,blicket,32,image-keyboard-response,
981,ds_ds,True,1,ds_ds,,f,off,blicket_images/lc.jpg,,0.0-30.0,,f,2088,blicket_images/lc.jpg,293792,blicket,34,image-keyboard-response,
981,ds_ds,True,1,ds_ds,,f,off,blicket_images/dc.jpg,,0.0-32.0,,f,2340,blicket_images/dc.jpg,297591,blicket,36,image-keyboard-response,
981,ds_ds,True,1,ds_ds,,f,off,blicket_images/lc.jpg,,0.0-34.0,,f,924,blicket_images/lc.jpg,299416,blicket,38,image-keyboard-response,
981,ds_ds,True,1,ds_ds,,j,on,blicket_images/ds.jpg,,0.0-36.0,,j,2510,blicket_images/ds.jpg,303120,blicket,40,image-keyboard-response,
981,ds_ds,True,1,ds_ds,blicket_images/ds.jpg,,ds,,blicket_images/ds.jpg,0.0-37.0,,ds,8604,"Which of these options shows the image from the last trial, that you just saw?",311726,pop_quiz,41,html-button-response,
981,ds_ds,True,1,ds_ds,,,['ds'],,,0.0-38.0,[0],['ds'],5322,,317051,rule_question,42,survey-multi-select,
875,ds_ds,False,0,ds_ds,,f,off,blicket_images/dc.jpg,,0.0-6.0,,j,5001,blicket_images/dc.jpg,131536,blicket,10,image-keyboard-response,
875,ds_ds,True,1,ds_ds,,j,on,blicket_images/ds.jpg,,0.0-8.0,,j,5498,blicket_images/ds.jpg,139364,blicket,12,image-keyboard-response,
875,ds_ds,False,0,ds_ds,,f,off,blicket_images/ls.jpg,,0.0-10.0,,j,2365,blicket_images/ls.jpg,143140,blicket,14,image-keyboard-response,
875,ds_ds,True,1,ds_ds,,j,on,blicket_images/ds.jpg,,0.0-12.0,,j,3222,blicket_images/ds.jpg,147915,blicket,16,image-keyboard-response,
875,ds_ds,False,0,ds_ds,,f,off,blicket_images/ls.jpg,,0.0-14.0,,j,2311,blicket_images/ls.jpg,151489,blicket,18,image-keyboard-response,
875,ds_ds,True,1,ds_ds,,j,on,blicket_images/ds.jpg,,0.0-16.0,,j,1416,blicket_images/ds.jpg,154412,blicket,20,image-keyboard-response,
875,ds_ds,True,1,ds_ds,,f,off,blicket_images/lc.jpg,,0.0-18.0,,f,6136,blicket_images/lc.jpg,161172,blicket,22,image-keyboard-response,
875,ds_ds,True,1,ds_ds,,f,off,blicket_images/dc.jpg,,0.0-20.0,,f,2264,blicket_images/dc.jpg,165148,blicket,24,image-keyboard-response,
875,ds_ds,False,0,ds_ds,,f,off,blicket_images/ls.jpg,,0.0-22.0,,j,3843,blicket_images/ls.jpg,169653,blicket,26,image-keyboard-response,
875,ds_ds,False,0,ds_ds,,j,on,blicket_images/ds.jpg,,0.0-24.0,,f,3297,blicket_images/ds.jpg,173732,blicket,28,image-keyboard-response,
875,ds_ds,True,1,ds_ds,,f,off,blicket_images/dc.jpg,,0.0-26.0,,f,1753,blicket_images/dc.jpg,176480,blicket,30,image-keyboard-response,
875,ds_ds,True,1,ds_ds,,f,off,blicket_images/lc.jpg,,0.0-28.0,,f,1806,blicket_images/lc.jpg,178882,blicket,32,image-keyboard-response,
875,ds_ds,True,1,ds_ds,,f,off,blicket_images/ls.jpg,,0.0-30.0,,f,1756,blicket_images/ls.jpg,181335,blicket,34,image-keyboard-response,
875,ds_ds,True,1,ds_ds,,f,off,blicket_images/lc.jpg,,0.0-32.0,,f,1594,blicket_images/lc.jpg,183693,blicket,36,image-keyboard-response,
875,ds_ds,True,1,ds_ds,,f,off,blicket_images/dc.jpg,,0.0-34.0,,f,1301,blicket_images/dc.jpg,185661,blicket,38,image-keyboard-response,
875,ds_ds,False,0,ds_ds,,j,on,blicket_images/ds.jpg,,0.0-36.0,,f,1043,blicket_images/ds.jpg,187274,blicket,40,image-keyboard-response,
875,ds_ds,False,0,ds_ds,blicket_images/ds.jpg,,ds,,blicket_images/dc.jpg,0.0-37.0,,dc,6221,"Which of these options shows the image from the last trial, that you just saw?",193501,pop_quiz,41,html-button-response,
875,ds_ds,False,0,ds_ds,,,['ds'],,,0.0-38.0,[0],"['dc', 'ds', 'lc', 'ls']",13465,,206974,rule_question,42,survey-multi-select,
905,ds_ds,False,0,ds_ds,,j,on,blicket_images/ds.jpg,,0.0-6.0,,f,9360,blicket_images/ds.jpg,122265,blicket,10,image-keyboard-response,
905,ds_ds,False,0,ds_ds,,f,off,blicket_images/dc.jpg,,0.0-8.0,,j,2588,blicket_images/dc.jpg,128631,blicket,12,image-keyboard-response,
905,ds_ds,True,1,ds_ds,,f,off,blicket_images/lc.jpg,,0.0-10.0,,f,2384,blicket_images/lc.jpg,133504,blicket,14,image-keyboard-response,
905,ds_ds,True,1,ds_ds,,f,off,blicket_images/dc.jpg,,0.0-12.0,,f,1431,blicket_images/dc.jpg,136723,blicket,16,image-keyboard-response,
905,ds_ds,True,1,ds_ds,,f,off,blicket_images/lc.jpg,,0.0-14.0,,f,659,blicket_images/lc.jpg,138221,blicket,18,image-keyboard-response,
905,ds_ds,True,1,ds_ds,,j,on,blicket_images/ds.jpg,,0.0-16.0,,j,616,blicket_images/ds.jpg,139627,blicket,20,image-keyboard-response,
905,ds_ds,True,1,ds_ds,,f,off,blicket_images/dc.jpg,,0.0-18.0,,f,538,blicket_images/dc.jpg,140765,blicket,22,image-keyboard-response,
905,ds_ds,False,0,ds_ds,,f,off,blicket_images/ls.jpg,,0.0-20.0,,j,2942,blicket_images/ls.jpg,144247,blicket,24,image-keyboard-response,
905,ds_ds,True,1,ds_ds,,j,on,blicket_images/ds.jpg,,0.0-22.0,,j,2024,blicket_images/ds.jpg,150359,blicket,26,image-keyboard-response,
905,ds_ds,True,1,ds_ds,,f,off,blicket_images/lc.jpg,,0.0-24.0,,f,1917,blicket_images/lc.jpg,153650,blicket,28,image-keyboard-response,
905,ds_ds,False,0,ds_ds,,f,off,blicket_images/ls.jpg,,0.0-26.0,,j,1247,blicket_images/ls.jpg,155855,blicket,30,image-keyboard-response,
905,ds_ds,True,1,ds_ds,,f,off,blicket_images/lc.jpg,,0.0-28.0,,f,4176,blicket_images/lc.jpg,161324,blicket,32,image-keyboard-response,
905,ds_ds,False,0,ds_ds,,f,off,blicket_images/ls.jpg,,0.0-30.0,,j,2029,blicket_images/ls.jpg,164291,blicket,34,image-keyboard-response,
905,ds_ds,True,1,ds_ds,,f,off,blicket_images/dc.jpg,,0.0-32.0,,f,3185,blicket_images/dc.jpg,168485,blicket,36,image-keyboard-response,
905,ds_ds,True,1,ds_ds,,f,off,blicket_images/ls.jpg,,0.0-34.0,,f,1304,blicket_images/ls.jpg,170601,blicket,38,image-keyboard-response,
905,ds_ds,True,1,ds_ds,,j,on,blicket_images/ds.jpg,,0.0-36.0,,j,865,blicket_images/ds.jpg,172181,blicket,40,image-keyboard-response,
905,ds_ds,False,0,ds_ds,blicket_images/ds.jpg,,ds,,blicket_images/lc.jpg,0.0-37.0,,lc,14612,"Which of these options shows the image from the last trial, that you just saw?",186794,pop_quiz,41,html-button-response,
905,ds_ds,True,1,ds_ds,,,['ds'],,,0.0-38.0,[0],['ds'],5851,,192648,rule_question,42,survey-multi-select,
866,ds_ds,False,0,ds_ds,,f,off,blicket_images/ls.jpg,,0.0-6.0,,j,6924,blicket_images/ls.jpg,116687,blicket,10,image-keyboard-response,
866,ds_ds,True,1,ds_ds,,j,on,blicket_images/ds.jpg,,0.0-8.0,,j,3775,blicket_images/ds.jpg,127203,blicket,12,image-keyboard-response,
866,ds_ds,False,0,ds_ds,,f,off,blicket_images/dc.jpg,,0.0-10.0,,j,1819,blicket_images/dc.jpg,133456,blicket,14,image-keyboard-response,
866,ds_ds,True,1,ds_ds,,f,off,blicket_images/lc.jpg,,0.0-12.0,,f,1607,blicket_images/lc.jpg,136393,blicket,16,image-keyboard-response,
866,ds_ds,True,1,ds_ds,,f,off,blicket_images/ls.jpg,,0.0-14.0,,f,1198,blicket_images/ls.jpg,141288,blicket,18,image-keyboard-response,
866,ds_ds,True,1,ds_ds,,f,off,blicket_images/dc.jpg,,0.0-16.0,,f,1841,blicket_images/dc.jpg,145675,blicket,20,image-keyboard-response,
866,ds_ds,True,1,ds_ds,,f,off,blicket_images/lc.jpg,,0.0-18.0,,f,1450,blicket_images/lc.jpg,149664,blicket,22,image-keyboard-response,
866,ds_ds,True,1,ds_ds,,f,off,blicket_images/dc.jpg,,0.0-20.0,,f,1461,blicket_images/dc.jpg,152399,blicket,24,image-keyboard-response,
866,ds_ds,True,1,ds_ds,,f,off,blicket_images/lc.jpg,,0.0-22.0,,f,793,blicket_images/lc.jpg,154481,blicket,26,image-keyboard-response,
866,ds_ds,False,0,ds_ds,,f,off,blicket_images/ls.jpg,,0.0-24.0,,j,1197,blicket_images/ls.jpg,156780,blicket,28,image-keyboard-response,
866,ds_ds,True,1,ds_ds,,j,on,blicket_images/ds.jpg,,0.0-26.0,,j,900,blicket_images/ds.jpg,159210,blicket,30,image-keyboard-response,
866,ds_ds,True,1,ds_ds,,f,off,blicket_images/ls.jpg,,0.0-28.0,,f,1182,blicket_images/ls.jpg,162063,blicket,32,image-keyboard-response,
866,ds_ds,True,1,ds_ds,,j,on,blicket_images/ds.jpg,,0.0-30.0,,j,976,blicket_images/ds.jpg,164145,blicket,34,image-keyboard-response,
866,ds_ds,True,1,ds_ds,,f,off,blicket_images/dc.jpg,,0.0-32.0,,f,1137,blicket_images/dc.jpg,166314,blicket,36,image-keyboard-response,
866,ds_ds,True,1,ds_ds,,f,off,blicket_images/lc.jpg,,0.0-34.0,,f,999,blicket_images/lc.jpg,168275,blicket,38,image-keyboard-response,
866,ds_ds,True,1,ds_ds,,j,on,blicket_images/ds.jpg,,0.0-36.0,,j,1001,blicket_images/ds.jpg,170356,blicket,40,image-keyboard-response,
866,ds_ds,True,1,ds_ds,blicket_images/ds.jpg,,ds,,blicket_images/ds.jpg,0.0-37.0,,ds,10774,"Which of these options shows the image from the last trial, that you just saw?",181130,pop_quiz,41,html-button-response,
866,ds_ds,True,1,ds_ds,,,['ds'],,,0.0-38.0,[0],['ds'],4611,,185744,rule_question,42,survey-multi-select,
972,ds_ds,False,0,ds_ds,,f,off,blicket_images/ls.jpg,,0.0-6.0,,j,1133,blicket_images/ls.jpg,58910,blicket,16,image-keyboard-response,
972,ds_ds,False,0,ds_ds,,f,off,blicket_images/dc.jpg,,0.0-8.0,,j,1266,blicket_images/dc.jpg,61157,blicket,18,image-keyboard-response,
972,ds_ds,True,1,ds_ds,,f,off,blicket_images/ls.jpg,,0.0-10.0,,f,1191,blicket_images/ls.jpg,63084,blicket,20,image-keyboard-response,
972,ds_ds,False,0,ds_ds,,f,off,blicket_images/lc.jpg,,0.0-12.0,,j,786,blicket_images/lc.jpg,64480,blicket,22,image-keyboard-response,
972,ds_ds,True,1,ds_ds,,f,off,blicket_images/dc.jpg,,0.0-14.0,,f,1669,blicket_images/dc.jpg,66766,blicket,24,image-keyboard-response,
972,ds_ds,True,1,ds_ds,,j,on,blicket_images/ds.jpg,,0.0-16.0,,j,1045,blicket_images/ds.jpg,68597,blicket,26,image-keyboard-response,
972,ds_ds,True,1,ds_ds,,f,off,blicket_images/lc.jpg,,0.0-18.0,,f,850,blicket_images/lc.jpg,70055,blicket,28,image-keyboard-response,
972,ds_ds,False,0,ds_ds,,f,off,blicket_images/dc.jpg,,0.0-20.0,,j,1180,blicket_images/dc.jpg,71958,blicket,30,image-keyboard-response,
972,ds_ds,True,1,ds_ds,,j,on,blicket_images/ds.jpg,,0.0-22.0,,j,1753,blicket_images/ds.jpg,74241,blicket,32,image-keyboard-response,
972,ds_ds,True,1,ds_ds,,f,off,blicket_images/ls.jpg,,0.0-24.0,,f,757,blicket_images/ls.jpg,75469,blicket,34,image-keyboard-response,
972,ds_ds,True,1,ds_ds,,j,on,blicket_images/ds.jpg,,0.0-26.0,,j,680,blicket_images/ds.jpg,76610,blicket,36,image-keyboard-response,
972,ds_ds,True,1,ds_ds,,f,off,blicket_images/ls.jpg,,0.0-28.0,,f,591,blicket_images/ls.jpg,77659,blicket,38,image-keyboard-response,
972,ds_ds,True,1,ds_ds,,f,off,blicket_images/lc.jpg,,0.0-30.0,,f,604,blicket_images/lc.jpg,78820,blicket,40,image-keyboard-response,
972,ds_ds,True,1,ds_ds,,j,on,blicket_images/ds.jpg,,0.0-32.0,,j,650,blicket_images/ds.jpg,79949,blicket,42,image-keyboard-response,
972,ds_ds,True,1,ds_ds,,f,off,blicket_images/dc.jpg,,0.0-34.0,,f,667,blicket_images/dc.jpg,81195,blicket,44,image-keyboard-response,
972,ds_ds,True,1,ds_ds,,j,on,blicket_images/ds.jpg,,0.0-36.0,,j,814,blicket_images/ds.jpg,82501,blicket,46,image-keyboard-response,
972,ds_ds,True,1,ds_ds,blicket_images/ds.jpg,,ds,,blicket_images/ds.jpg,0.0-37.0,,ds,6186,"Which of these options shows the image from the last trial, that you just saw?",88690,pop_quiz,47,html-button-response,
972,ds_ds,True,1,ds_ds,,,['ds'],,,0.0-38.0,[0],['ds'],3490,,92192,rule_question,48,survey-multi-select,
948,ds_ds,False,0,ds_ds,,f,off,blicket_images/lc.jpg,,0.0-6.0,,j,3070,blicket_images/lc.jpg,108496,blicket,10,image-keyboard-response,
948,ds_ds,True,1,ds_ds,,j,on,blicket_images/ds.jpg,,0.0-8.0,,j,2877,blicket_images/ds.jpg,115186,blicket,12,image-keyboard-response,
948,ds_ds,True,1,ds_ds,,f,off,blicket_images/ls.jpg,,0.0-10.0,,f,1363,blicket_images/ls.jpg,117928,blicket,14,image-keyboard-response,
948,ds_ds,True,1,ds_ds,,f,off,blicket_images/lc.jpg,,0.0-12.0,,f,1315,blicket_images/lc.jpg,120486,blicket,16,image-keyboard-response,
948,ds_ds,True,1,ds_ds,,f,off,blicket_images/ls.jpg,,0.0-14.0,,f,1722,blicket_images/ls.jpg,123189,blicket,18,image-keyboard-response,
948,ds_ds,False,0,ds_ds,,f,off,blicket_images/dc.jpg,,0.0-16.0,,j,743,blicket_images/dc.jpg,124698,blicket,20,image-keyboard-response,
948,ds_ds,True,1,ds_ds,,j,on,blicket_images/ds.jpg,,0.0-18.0,,j,2128,blicket_images/ds.jpg,128594,blicket,22,image-keyboard-response,
948,ds_ds,True,1,ds_ds,,f,off,blicket_images/lc.jpg,,0.0-20.0,,f,1618,blicket_images/lc.jpg,130961,blicket,24,image-keyboard-response,
948,ds_ds,False,0,ds_ds,,f,off,blicket_images/dc.jpg,,0.0-22.0,,j,1834,blicket_images/dc.jpg,133680,blicket,26,image-keyboard-response,
948,ds_ds,True,1,ds_ds,,j,on,blicket_images/ds.jpg,,0.0-24.0,,j,1308,blicket_images/ds.jpg,135610,blicket,28,image-keyboard-response,
948,ds_ds,True,1,ds_ds,,f,off,blicket_images/ls.jpg,,0.0-26.0,,f,1300,blicket_images/ls.jpg,137660,blicket,30,image-keyboard-response,
948,ds_ds,True,1,ds_ds,,j,on,blicket_images/ds.jpg,,0.0-28.0,,j,1286,blicket_images/ds.jpg,139551,blicket,32,image-keyboard-response,
948,ds_ds,True,1,ds_ds,,f,off,blicket_images/dc.jpg,,0.0-30.0,,f,974,blicket_images/dc.jpg,141107,blicket,34,image-keyboard-response,
948,ds_ds,True,1,ds_ds,,f,off,blicket_images/lc.jpg,,0.0-32.0,,f,918,blicket_images/lc.jpg,142584,blicket,36,image-keyboard-response,
948,ds_ds,True,1,ds_ds,,f,off,blicket_images/ls.jpg,,0.0-34.0,,f,870,blicket_images/ls.jpg,144029,blicket,38,image-keyboard-response,
948,ds_ds,True,1,ds_ds,,j,on,blicket_images/ds.jpg,,0.0-36.0,,j,745,blicket_images/ds.jpg,145363,blicket,40,image-keyboard-response,
948,ds_ds,True,1,ds_ds,blicket_images/ds.jpg,,ds,,blicket_images/ds.jpg,0.0-37.0,,ds,5170,"Which of these options shows the image from the last trial, that you just saw?",150534,pop_quiz,41,html-button-response,
948,ds_ds,True,1,ds_ds,,,['ds'],,,0.0-38.0,[0],['ds'],6443,,156981,rule_question,42,survey-multi-select,
919,ds_dc,False,0,ds_dc,,f,off,blicket_images/lc.jpg,,0.0-6.0,,j,3069,blicket_images/lc.jpg,141443,blicket,16,image-keyboard-response,
919,ds_dc,False,0,ds_dc,,f,off,blicket_images/dc.jpg,,0.0-8.0,,j,1233,blicket_images/dc.jpg,143691,blicket,18,image-keyboard-response,
919,ds_dc,True,1,ds_dc,,f,off,blicket_images/lc.jpg,,0.0-10.0,,f,2894,blicket_images/lc.jpg,147245,blicket,20,image-keyboard-response,
919,ds_dc,False,0,ds_dc,,j,on,blicket_images/ds.jpg,,0.0-12.0,,f,1512,blicket_images/ds.jpg,149478,blicket,22,image-keyboard-response,
919,ds_dc,False,0,ds_dc,,f,off,blicket_images/dc.jpg,,0.0-14.0,,j,1569,blicket_images/dc.jpg,152081,blicket,24,image-keyboard-response,
919,ds_dc,False,0,ds_dc,,f,off,blicket_images/ls.jpg,,0.0-16.0,,j,2126,blicket_images/ls.jpg,154814,blicket,26,image-keyboard-response,
919,ds_dc,True,1,ds_dc,,f,off,blicket_images/lc.jpg,,0.0-18.0,,f,1134,blicket_images/lc.jpg,156453,blicket,28,image-keyboard-response,
919,ds_dc,True,1,ds_dc,,f,off,blicket_images/dc.jpg,,0.0-20.0,,f,1646,blicket_images/dc.jpg,158744,blicket,30,image-keyboard-response,
919,ds_dc,False,0,ds_dc,,j,on,blicket_images/ds.jpg,,0.0-22.0,,f,1381,blicket_images/ds.jpg,160633,blicket,32,image-keyboard-response,
919,ds_dc,False,0,ds_dc,,f,off,blicket_images/ls.jpg,,0.0-24.0,,j,4878,blicket_images/ls.jpg,166574,blicket,34,image-keyboard-response,
919,ds_dc,False,0,ds_dc,,f,off,blicket_images/lc.jpg,,0.0-26.0,,j,1368,blicket_images/lc.jpg,169265,blicket,36,image-keyboard-response,
919,ds_dc,False,0,ds_dc,,f,off,blicket_images/dc.jpg,,0.0-28.0,,j,918,blicket_images/dc.jpg,170918,blicket,38,image-keyboard-response,
919,ds_dc,False,0,ds_dc,,f,off,blicket_images/ls.jpg,,0.0-30.0,,j,719,blicket_images/ls.jpg,172343,blicket,40,image-keyboard-response,
919,ds_dc,False,0,ds_dc,,j,on,blicket_images/ds.jpg,,0.0-32.0,,f,774,blicket_images/ds.jpg,173590,blicket,42,image-keyboard-response,
919,ds_dc,False,0,ds_dc,,f,off,blicket_images/ls.jpg,,0.0-34.0,,j,589,blicket_images/ls.jpg,174835,blicket,44,image-keyboard-response,
919,ds_dc,True,1,ds_dc,,f,off,blicket_images/dc.jpg,,0.0-36.0,,f,487,blicket_images/dc.jpg,176003,blicket,46,image-keyboard-response,
919,ds_dc,True,1,ds_dc,blicket_images/dc.jpg,,dc,,blicket_images/dc.jpg,0.0-37.0,,dc,6282,"Which of these options shows the image from the last trial, that you just saw?",182290,pop_quiz,47,html-button-response,
919,ds_dc,False,0,ds_dc,,,['ds'],,,0.0-38.0,[0],"['dc', 'ds', 'lc', 'ls']",8633,,190935,rule_question,48,survey-multi-select,
856,ds_dc,False,0,ds_dc,,f,off,blicket_images/ls.jpg,,0.0-6.0,,j,8628,blicket_images/ls.jpg,133927,blicket,10,image-keyboard-response,
856,ds_dc,False,0,ds_dc,,f,off,blicket_images/lc.jpg,,0.0-8.0,,j,6290,blicket_images/lc.jpg,145535,blicket,12,image-keyboard-response,
856,ds_dc,False,0,ds_dc,,f,off,blicket_images/dc.jpg,,0.0-10.0,,j,2192,blicket_images/dc.jpg,150433,blicket,14,image-keyboard-response,
856,ds_dc,True,1,ds_dc,,j,on,blicket_images/ds.jpg,,0.0-12.0,,j,1748,blicket_images/ds.jpg,153959,blicket,16,image-keyboard-response,
856,ds_dc,True,1,ds_dc,,f,off,blicket_images/lc.jpg,,0.0-14.0,,f,2087,blicket_images/lc.jpg,160135,blicket,18,image-keyboard-response,
856,ds_dc,True,1,ds_dc,,f,off,blicket_images/dc.jpg,,0.0-16.0,,f,5611,blicket_images/dc.jpg,167855,blicket,20,image-keyboard-response,
856,ds_dc,True,1,ds_dc,,j,on,blicket_images/ds.jpg,,0.0-18.0,,j,1921,blicket_images/ds.jpg,174190,blicket,22,image-keyboard-response,
856,ds_dc,False,0,ds_dc,,f,off,blicket_images/ls.jpg,,0.0-20.0,,j,2333,blicket_images/ls.jpg,178679,blicket,24,image-keyboard-response,
856,ds_dc,True,1,ds_dc,,f,off,blicket_images/lc.jpg,,0.0-22.0,,f,1966,blicket_images/lc.jpg,182568,blicket,26,image-keyboard-response,
856,ds_dc,True,1,ds_dc,,j,on,blicket_images/ds.jpg,,0.0-24.0,,j,1487,blicket_images/ds.jpg,185838,blicket,28,image-keyboard-response,
856,ds_dc,True,1,ds_dc,,f,off,blicket_images/ls.jpg,,0.0-26.0,,f,1437,blicket_images/ls.jpg,189006,blicket,30,image-keyboard-response,
856,ds_dc,True,1,ds_dc,,f,off,blicket_images/dc.jpg,,0.0-28.0,,f,1189,blicket_images/dc.jpg,192518,blicket,32,image-keyboard-response,
856,ds_dc,True,1,ds_dc,,j,on,blicket_images/ds.jpg,,0.0-30.0,,j,995,blicket_images/ds.jpg,194614,blicket,34,image-keyboard-response,
856,ds_dc,True,1,ds_dc,,f,off,blicket_images/lc.jpg,,0.0-32.0,,f,973,blicket_images/lc.jpg,196726,blicket,36,image-keyboard-response,
856,ds_dc,True,1,ds_dc,,f,off,blicket_images/ls.jpg,,0.0-34.0,,f,909,blicket_images/ls.jpg,198518,blicket,38,image-keyboard-response,
856,ds_dc,True,1,ds_dc,,f,off,blicket_images/dc.jpg,,0.0-36.0,,f,926,blicket_images/dc.jpg,200182,blicket,40,image-keyboard-response,
856,ds_dc,True,1,ds_dc,blicket_images/dc.jpg,,dc,,blicket_images/dc.jpg,0.0-37.0,,dc,5882,"Which of these options shows the image from the last trial, that you just saw?",206071,pop_quiz,41,html-button-response,
856,ds_dc,True,1,ds_dc,,,['ds'],,,0.0-38.0,[0],['ds'],6129,,212216,rule_question,42,survey-multi-select,
902,ds_dc,False,0,ds_dc,,f,off,blicket_images/ls.jpg,,0.0-6.0,,j,3575,blicket_images/ls.jpg,37861,blicket,10,image-keyboard-response,
902,ds_dc,True,1,ds_dc,,j,on,blicket_images/ds.jpg,,0.0-8.0,,j,2407,blicket_images/ds.jpg,41805,blicket,12,image-keyboard-response,
902,ds_dc,False,0,ds_dc,,f,off,blicket_images/dc.jpg,,0.0-10.0,,j,3240,blicket_images/dc.jpg,47325,blicket,14,image-keyboard-response,
902,ds_dc,True,1,ds_dc,,j,on,blicket_images/ds.jpg,,0.0-12.0,,j,1248,blicket_images/ds.jpg,49710,blicket,16,image-keyboard-response,
902,ds_dc,True,1,ds_dc,,f,off,blicket_images/ls.jpg,,0.0-14.0,,f,1128,blicket_images/ls.jpg,51855,blicket,18,image-keyboard-response,
902,ds_dc,False,0,ds_dc,,f,off,blicket_images/lc.jpg,,0.0-16.0,,j,1882,blicket_images/lc.jpg,54744,blicket,20,image-keyboard-response,
902,ds_dc,True,1,ds_dc,,f,off,blicket_images/dc.jpg,,0.0-18.0,,f,1024,blicket_images/dc.jpg,56734,blicket,22,image-keyboard-response,
902,ds_dc,True,1,ds_dc,,f,off,blicket_images/lc.jpg,,0.0-20.0,,f,766,blicket_images/lc.jpg,58503,blicket,24,image-keyboard-response,
902,ds_dc,True,1,ds_dc,,j,on,blicket_images/ds.jpg,,0.0-22.0,,j,1631,blicket_images/ds.jpg,60957,blicket,26,image-keyboard-response,
902,ds_dc,True,1,ds_dc,,f,off,blicket_images/lc.jpg,,0.0-24.0,,f,1343,blicket_images/lc.jpg,62981,blicket,28,image-keyboard-response,
902,ds_dc,True,1,ds_dc,,f,off,blicket_images/dc.jpg,,0.0-26.0,,f,926,blicket_images/dc.jpg,64535,blicket,30,image-keyboard-response,
902,ds_dc,False,0,ds_dc,,f,off,blicket_images/ls.jpg,,0.0-28.0,,j,1117,blicket_images/ls.jpg,66351,blicket,32,image-keyboard-response,
902,ds_dc,True,1,ds_dc,,f,off,blicket_images/dc.jpg,,0.0-30.0,,f,2743,blicket_images/dc.jpg,69989,blicket,34,image-keyboard-response,
902,ds_dc,True,1,ds_dc,,f,off,blicket_images/ls.jpg,,0.0-32.0,,f,1041,blicket_images/ls.jpg,71535,blicket,36,image-keyboard-response,
902,ds_dc,True,1,ds_dc,,j,on,blicket_images/ds.jpg,,0.0-34.0,,j,736,blicket_images/ds.jpg,72718,blicket,38,image-keyboard-response,
902,ds_dc,True,1,ds_dc,,f,off,blicket_images/dc.jpg,,0.0-36.0,,f,1022,blicket_images/dc.jpg,74221,blicket,40,image-keyboard-response,
902,ds_dc,True,1,ds_dc,blicket_images/dc.jpg,,dc,,blicket_images/dc.jpg,0.0-37.0,,dc,3768,"Which of these options shows the image from the last trial, that you just saw?",77991,pop_quiz,41,html-button-response,
902,ds_dc,True,1,ds_dc,,,['ds'],,,0.0-38.0,[0],['ds'],4836,,82830,rule_question,42,survey-multi-select,
890,ds_dc,False,0,ds_dc,,f,off,blicket_images/lc.jpg,,0.0-6.0,,j,3024,blicket_images/lc.jpg,78426,blicket,10,image-keyboard-response,
890,ds_dc,True,1,ds_dc,,j,on,blicket_images/ds.jpg,,0.0-8.0,,j,2246,blicket_images/ds.jpg,83235,blicket,12,image-keyboard-response,
890,ds_dc,True,1,ds_dc,,f,off,blicket_images/ls.jpg,,0.0-10.0,,f,2160,blicket_images/ls.jpg,87778,blicket,14,image-keyboard-response,
890,ds_dc,True,1,ds_dc,,j,on,blicket_images/ds.jpg,,0.0-12.0,,j,1884,blicket_images/ds.jpg,92017,blicket,16,image-keyboard-response,
890,ds_dc,False,0,ds_dc,,f,off,blicket_images/dc.jpg,,0.0-14.0,,j,1344,blicket_images/dc.jpg,94622,blicket,18,image-keyboard-response,
890,ds_dc,True,1,ds_dc,,j,on,blicket_images/ds.jpg,,0.0-16.0,,j,1043,blicket_images/ds.jpg,96775,blicket,20,image-keyboard-response,
890,ds_dc,True,1,ds_dc,,f,off,blicket_images/ls.jpg,,0.0-18.0,,f,1383,blicket_images/ls.jpg,99188,blicket,22,image-keyboard-response,
890,ds_dc,True,1,ds_dc,,f,off,blicket_images/lc.jpg,,0.0-20.0,,f,1707,blicket_images/lc.jpg,102484,blicket,24,image-keyboard-response,
890,ds_dc,True,1,ds_dc,,f,off,blicket_images/dc.jpg,,0.0-22.0,,f,1215,blicket_images/dc.jpg,105356,blicket,26,image-keyboard-response,
890,ds_dc,True,1,ds_dc,,j,on,blicket_images/ds.jpg,,0.0-24.0,,j,1163,blicket_images/ds.jpg,108343,blicket,28,image-keyboard-response,
890,ds_dc,True,1,ds_dc,,f,off,blicket_images/lc.jpg,,0.0-26.0,,f,1173,blicket_images/lc.jpg,111093,blicket,30,image-keyboard-response,
890,ds_dc,True,1,ds_dc,,f,off,blicket_images/ls.jpg,,0.0-28.0,,f,1180,blicket_images/ls.jpg,114356,blicket,32,image-keyboard-response,
890,ds_dc,False,0,ds_dc,,f,off,blicket_images/dc.jpg,,0.0-30.0,,j,991,blicket_images/dc.jpg,117408,blicket,34,image-keyboard-response,
890,ds_dc,True,1,ds_dc,,f,off,blicket_images/ls.jpg,,0.0-32.0,,f,901,blicket_images/ls.jpg,120643,blicket,36,image-keyboard-response,
890,ds_dc,True,1,ds_dc,,f,off,blicket_images/lc.jpg,,0.0-34.0,,f,1620,blicket_images/lc.jpg,124013,blicket,38,image-keyboard-response,
890,ds_dc,True,1,ds_dc,,f,off,blicket_images/dc.jpg,,0.0-36.0,,f,817,blicket_images/dc.jpg,126736,blicket,40,image-keyboard-response,
890,ds_dc,True,1,ds_dc,blicket_images/dc.jpg,,dc,,blicket_images/dc.jpg,0.0-37.0,,dc,5718,"Which of these options shows the image from the last trial, that you just saw?",132458,pop_quiz,41,html-button-response,
890,ds_dc,True,1,ds_dc,,,['ds'],,,0.0-38.0,[0],['ds'],10794,,143255,rule_question,42,survey-multi-select,
951,ds_dc,True,1,ds_dc,,f,off,blicket_images/dc.jpg,,0.0-6.0,,f,5552,blicket_images/dc.jpg,131201,blicket,16,image-keyboard-response,
951,ds_dc,False,0,ds_dc,,f,off,blicket_images/lc.jpg,,0.0-8.0,,j,1667,blicket_images/lc.jpg,134041,blicket,18,image-keyboard-response,
951,ds_dc,False,0,ds_dc,,f,off,blicket_images/ls.jpg,,0.0-10.0,,j,2545,blicket_images/ls.jpg,137939,blicket,20,image-keyboard-response,
951,ds_dc,True,1,ds_dc,,j,on,blicket_images/ds.jpg,,0.0-12.0,,j,3049,blicket_images/ds.jpg,141714,blicket,22,image-keyboard-response,
951,ds_dc,True,1,ds_dc,,f,off,blicket_images/dc.jpg,,0.0-14.0,,f,1273,blicket_images/dc.jpg,144137,blicket,24,image-keyboard-response,
951,ds_dc,True,1,ds_dc,,f,off,blicket_images/lc.jpg,,0.0-16.0,,f,1207,blicket_images/lc.jpg,146304,blicket,26,image-keyboard-response,
951,ds_dc,True,1,ds_dc,,f,off,blicket_images/ls.jpg,,0.0-18.0,,f,1268,blicket_images/ls.jpg,148396,blicket,28,image-keyboard-response,
951,ds_dc,True,1,ds_dc,,j,on,blicket_images/ds.jpg,,0.0-20.0,,j,1174,blicket_images/ds.jpg,150331,blicket,30,image-keyboard-response,
951,ds_dc,True,1,ds_dc,,f,off,blicket_images/lc.jpg,,0.0-22.0,,f,892,blicket_images/lc.jpg,152147,blicket,32,image-keyboard-response,
951,ds_dc,False,0,ds_dc,,f,off,blicket_images/ls.jpg,,0.0-24.0,,j,2181,blicket_images/ls.jpg,155130,blicket,34,image-keyboard-response,
951,ds_dc,True,1,ds_dc,,j,on,blicket_images/ds.jpg,,0.0-26.0,,j,3483,blicket_images/ds.jpg,159367,blicket,36,image-keyboard-response,
951,ds_dc,True,1,ds_dc,,f,off,blicket_images/dc.jpg,,0.0-28.0,,f,814,blicket_images/dc.jpg,160906,blicket,38,image-keyboard-response,
951,ds_dc,False,0,ds_dc,,j,on,blicket_images/ds.jpg,,0.0-30.0,,f,1922,blicket_images/ds.jpg,163487,blicket,40,image-keyboard-response,
951,ds_dc,False,0,ds_dc,,f,off,blicket_images/dc.jpg,,0.0-32.0,,j,1133,blicket_images/dc.jpg,165829,blicket,42,image-keyboard-response,
951,ds_dc,False,0,ds_dc,,f,off,blicket_images/lc.jpg,,0.0-34.0,,j,1998,blicket_images/lc.jpg,169046,blicket,44,image-keyboard-response,
951,ds_dc,False,0,ds_dc,,f,off,blicket_images/dc.jpg,,0.0-36.0,,j,1254,blicket_images/dc.jpg,170933,blicket,46,image-keyboard-response,
951,ds_dc,False,0,ds_dc,blicket_images/dc.jpg,,dc,,blicket_images/lc.jpg,0.0-37.0,,lc,7417,"Which of these options shows the image from the last trial, that you just saw?",178352,pop_quiz,47,html-button-response,
951,ds_dc,False,0,ds_dc,,,['ds'],,,0.0-38.0,[0],"['dc', 'ls']",13949,,192305,rule_question,48,survey-multi-select,
929,ds_dc,False,0,ds_dc,,f,off,blicket_images/lc.jpg,,0.0-6.0,,j,4579,blicket_images/lc.jpg,83589,blicket,10,image-keyboard-response,
929,ds_dc,True,1,ds_dc,,j,on,blicket_images/ds.jpg,,0.0-8.0,,j,2021,blicket_images/ds.jpg,90805,blicket,12,image-keyboard-response,
929,ds_dc,True,1,ds_dc,,f,off,blicket_images/dc.jpg,,0.0-10.0,,f,2335,blicket_images/dc.jpg,98541,blicket,14,image-keyboard-response,
929,ds_dc,True,1,ds_dc,,f,off,blicket_images/lc.jpg,,0.0-12.0,,f,1431,blicket_images/lc.jpg,102389,blicket,16,image-keyboard-response,
929,ds_dc,False,0,ds_dc,,f,off,blicket_images/ls.jpg,,0.0-14.0,,j,1382,blicket_images/ls.jpg,105781,blicket,18,image-keyboard-response,
929,ds_dc,True,1,ds_dc,,f,off,blicket_images/lc.jpg,,0.0-16.0,,f,1046,blicket_images/lc.jpg,108853,blicket,20,image-keyboard-response,
929,ds_dc,True,1,ds_dc,,f,off,blicket_images/ls.jpg,,0.0-18.0,,f,1767,blicket_images/ls.jpg,112293,blicket,22,image-keyboard-response,
929,ds_dc,True,1,ds_dc,,f,off,blicket_images/dc.jpg,,0.0-20.0,,f,1055,blicket_images/dc.jpg,114453,blicket,24,image-keyboard-response,
929,ds_dc,True,1,ds_dc,,f,off,blicket_images/ls.jpg,,0.0-22.0,,f,2759,blicket_images/ls.jpg,118461,blicket,26,image-keyboard-response,
929,ds_dc,True,1,ds_dc,,j,on,blicket_images/ds.jpg,,0.0-24.0,,j,1143,blicket_images/ds.jpg,120453,blicket,28,image-keyboard-response,
929,ds_dc,True,1,ds_dc,,f,off,blicket_images/dc.jpg,,0.0-26.0,,f,1040,blicket_images/dc.jpg,122573,blicket,30,image-keyboard-response,
929,ds_dc,True,1,ds_dc,,f,off,blicket_images/lc.jpg,,0.0-28.0,,f,935,blicket_images/lc.jpg,124637,blicket,32,image-keyboard-response,
929,ds_dc,True,1,ds_dc,,f,off,blicket_images/dc.jpg,,0.0-30.0,,f,1103,blicket_images/dc.jpg,126845,blicket,34,image-keyboard-response,
929,ds_dc,True,1,ds_dc,,j,on,blicket_images/ds.jpg,,0.0-32.0,,j,952,blicket_images/ds.jpg,128814,blicket,36,image-keyboard-response,
929,ds_dc,True,1,ds_dc,,f,off,blicket_images/ls.jpg,,0.0-34.0,,f,920,blicket_images/ls.jpg,130694,blicket,38,image-keyboard-response,
929,ds_dc,True,1,ds_dc,,f,off,blicket_images/dc.jpg,,0.0-36.0,,f,848,blicket_images/dc.jpg,132790,blicket,40,image-keyboard-response,
929,ds_dc,True,1,ds_dc,blicket_images/dc.jpg,,dc,,blicket_images/dc.jpg,0.0-37.0,,dc,4818,"Which of these options shows the image from the last trial, that you just saw?",137610,pop_quiz,41,html-button-response,
929,ds_dc,True,1,ds_dc,,,['ds'],,,0.0-38.0,[0],['ds'],4238,,141852,rule_question,42,survey-multi-select,
874,ds_dc,True,1,ds_dc,,j,on,blicket_images/ds.jpg,,0.0-6.0,,j,5992,blicket_images/ds.jpg,200056,blicket,10,image-keyboard-response,
874,ds_dc,True,1,ds_dc,,f,off,blicket_images/lc.jpg,,0.0-8.0,,f,1934,blicket_images/lc.jpg,208081,blicket,12,image-keyboard-response,
874,ds_dc,True,1,ds_dc,,f,off,blicket_images/ls.jpg,,0.0-10.0,,f,1033,blicket_images/ls.jpg,210258,blicket,14,image-keyboard-response,
874,ds_dc,True,1,ds_dc,,f,off,blicket_images/dc.jpg,,0.0-12.0,,f,2832,blicket_images/dc.jpg,213874,blicket,16,image-keyboard-response,
874,ds_dc,True,1,ds_dc,,f,off,blicket_images/lc.jpg,,0.0-14.0,,f,1489,blicket_images/lc.jpg,216158,blicket,18,image-keyboard-response,
874,ds_dc,True,1,ds_dc,,j,on,blicket_images/ds.jpg,,0.0-16.0,,j,1482,blicket_images/ds.jpg,218357,blicket,20,image-keyboard-response,
874,ds_dc,True,1,ds_dc,,f,off,blicket_images/dc.jpg,,0.0-18.0,,f,1410,blicket_images/dc.jpg,220414,blicket,22,image-keyboard-response,
874,ds_dc,True,1,ds_dc,,f,off,blicket_images/ls.jpg,,0.0-20.0,,f,826,blicket_images/ls.jpg,221737,blicket,24,image-keyboard-response,
874,ds_dc,True,1,ds_dc,,j,on,blicket_images/ds.jpg,,0.0-22.0,,j,1687,blicket_images/ds.jpg,223962,blicket,26,image-keyboard-response,
874,ds_dc,True,1,ds_dc,,f,off,blicket_images/lc.jpg,,0.0-24.0,,f,1304,blicket_images/lc.jpg,225831,blicket,28,image-keyboard-response,
874,ds_dc,True,1,ds_dc,,f,off,blicket_images/ls.jpg,,0.0-26.0,,f,1014,blicket_images/ls.jpg,227298,blicket,30,image-keyboard-response,
874,ds_dc,True,1,ds_dc,,j,on,blicket_images/ds.jpg,,0.0-28.0,,j,1094,blicket_images/ds.jpg,228964,blicket,32,image-keyboard-response,
874,ds_dc,True,1,ds_dc,,f,off,blicket_images/ls.jpg,,0.0-30.0,,f,1131,blicket_images/ls.jpg,230531,blicket,34,image-keyboard-response,
874,ds_dc,True,1,ds_dc,,f,off,blicket_images/dc.jpg,,0.0-32.0,,f,1447,blicket_images/dc.jpg,232414,blicket,36,image-keyboard-response,
874,ds_dc,True,1,ds_dc,,j,on,blicket_images/ds.jpg,,0.0-34.0,,j,1527,blicket_images/ds.jpg,234390,blicket,38,image-keyboard-response,
874,ds_dc,True,1,ds_dc,,f,off,blicket_images/dc.jpg,,0.0-36.0,,f,1230,blicket_images/dc.jpg,236092,blicket,40,image-keyboard-response,
874,ds_dc,True,1,ds_dc,blicket_images/dc.jpg,,dc,,blicket_images/dc.jpg,0.0-37.0,,dc,9261,"Which of these options shows the image from the last trial, that you just saw?",245357,pop_quiz,41,html-button-response,
874,ds_dc,True,1,ds_dc,,,['ds'],,,0.0-38.0,[0],['ds'],3694,,249065,rule_question,42,survey-multi-select,
909,ds_dc,True,1,ds_dc,,f,off,blicket_images/dc.jpg,,0.0-6.0,,f,3915,blicket_images/dc.jpg,99467,blicket,10,image-keyboard-response,
909,ds_dc,True,1,ds_dc,,f,off,blicket_images/lc.jpg,,0.0-8.0,,f,1980,blicket_images/lc.jpg,105366,blicket,12,image-keyboard-response,
909,ds_dc,True,1,ds_dc,,j,on,blicket_images/ds.jpg,,0.0-10.0,,j,1659,blicket_images/ds.jpg,109314,blicket,14,image-keyboard-response,
909,ds_dc,True,1,ds_dc,,f,off,blicket_images/dc.jpg,,0.0-12.0,,f,1537,blicket_images/dc.jpg,112561,blicket,16,image-keyboard-response,
909,ds_dc,True,1,ds_dc,,f,off,blicket_images/lc.jpg,,0.0-14.0,,f,1714,blicket_images/lc.jpg,116026,blicket,18,image-keyboard-response,
909,ds_dc,True,1,ds_dc,,f,off,blicket_images/dc.jpg,,0.0-16.0,,f,1656,blicket_images/dc.jpg,119845,blicket,20,image-keyboard-response,
909,ds_dc,True,1,ds_dc,,j,on,blicket_images/ds.jpg,,0.0-18.0,,j,1585,blicket_images/ds.jpg,122431,blicket,22,image-keyboard-response,
909,ds_dc,False,0,ds_dc,,f,off,blicket_images/ls.jpg,,0.0-20.0,,j,1608,blicket_images/ls.jpg,126102,blicket,24,image-keyboard-response,
909,ds_dc,True,1,ds_dc,,j,on,blicket_images/ds.jpg,,0.0-22.0,,j,1875,blicket_images/ds.jpg,129938,blicket,26,image-keyboard-response,
909,ds_dc,True,1,ds_dc,,f,off,blicket_images/ls.jpg,,0.0-24.0,,f,967,blicket_images/ls.jpg,131833,blicket,28,image-keyboard-response,
909,ds_dc,True,1,ds_dc,,f,off,blicket_images/lc.jpg,,0.0-26.0,,f,2869,blicket_images/lc.jpg,135961,blicket,30,image-keyboard-response,
909,ds_dc,True,1,ds_dc,,f,off,blicket_images/ls.jpg,,0.0-28.0,,f,1720,blicket_images/ls.jpg,138791,blicket,32,image-keyboard-response,
909,ds_dc,True,1,ds_dc,,f,off,blicket_images/dc.jpg,,0.0-30.0,,f,1465,blicket_images/dc.jpg,141071,blicket,34,image-keyboard-response,
909,ds_dc,True,1,ds_dc,,f,off,blicket_images/lc.jpg,,0.0-32.0,,f,4115,blicket_images/lc.jpg,146069,blicket,36,image-keyboard-response,
909,ds_dc,True,1,ds_dc,,j,on,blicket_images/ds.jpg,,0.0-34.0,,j,1199,blicket_images/ds.jpg,148017,blicket,38,image-keyboard-response,
909,ds_dc,True,1,ds_dc,,f,off,blicket_images/dc.jpg,,0.0-36.0,,f,925,blicket_images/dc.jpg,149787,blicket,40,image-keyboard-response,
909,ds_dc,False,0,ds_dc,blicket_images/dc.jpg,,dc,,blicket_images/lc.jpg,0.0-37.0,,lc,9412,"Which of these options shows the image from the last trial, that you just saw?",159207,pop_quiz,41,html-button-response,
909,ds_dc,True,1,ds_dc,,,['ds'],,,0.0-38.0,[0],['ds'],5982,,165213,rule_question,42,survey-multi-select,
936,ds_dc,False,0,ds_dc,,f,off,blicket_images/lc.jpg,,0.0-6.0,,j,4520,blicket_images/lc.jpg,108790,blicket,10,image-keyboard-response,
936,ds_dc,False,0,ds_dc,,f,off,blicket_images/ls.jpg,,0.0-8.0,,j,2072,blicket_images/ls.jpg,112158,blicket,12,image-keyboard-response,
936,ds_dc,True,1,ds_dc,,j,on,blicket_images/ds.jpg,,0.0-10.0,,j,1472,blicket_images/ds.jpg,114775,blicket,14,image-keyboard-response,
936,ds_dc,True,1,ds_dc,,f,off,blicket_images/ls.jpg,,0.0-12.0,,f,1764,blicket_images/ls.jpg,117944,blicket,16,image-keyboard-response,
936,ds_dc,True,1,ds_dc,,f,off,blicket_images/lc.jpg,,0.0-14.0,,f,1183,blicket_images/lc.jpg,120192,blicket,18,image-keyboard-response,
936,ds_dc,True,1,ds_dc,,j,on,blicket_images/ds.jpg,,0.0-16.0,,j,1455,blicket_images/ds.jpg,122712,blicket,20,image-keyboard-response,
936,ds_dc,False,0,ds_dc,,f,off,blicket_images/dc.jpg,,0.0-18.0,,j,1384,blicket_images/dc.jpg,124889,blicket,22,image-keyboard-response,
936,ds_dc,True,1,ds_dc,,j,on,blicket_images/ds.jpg,,0.0-20.0,,j,2600,blicket_images/ds.jpg,128905,blicket,24,image-keyboard-response,
936,ds_dc,True,1,ds_dc,,f,off,blicket_images/dc.jpg,,0.0-22.0,,f,1192,blicket_images/dc.jpg,131082,blicket,26,image-keyboard-response,
936,ds_dc,True,1,ds_dc,,f,off,blicket_images/ls.jpg,,0.0-24.0,,f,1352,blicket_images/ls.jpg,133538,blicket,28,image-keyboard-response,
936,ds_dc,False,0,ds_dc,,f,off,blicket_images/dc.jpg,,0.0-26.0,,j,1704,blicket_images/dc.jpg,136251,blicket,30,image-keyboard-response,
936,ds_dc,True,1,ds_dc,,f,off,blicket_images/lc.jpg,,0.0-28.0,,f,1608,blicket_images/lc.jpg,140179,blicket,32,image-keyboard-response,
936,ds_dc,True,1,ds_dc,,j,on,blicket_images/ds.jpg,,0.0-30.0,,j,1272,blicket_images/ds.jpg,142460,blicket,34,image-keyboard-response,
936,ds_dc,True,1,ds_dc,,f,off,blicket_images/dc.jpg,,0.0-32.0,,f,1152,blicket_images/dc.jpg,144556,blicket,36,image-keyboard-response,
936,ds_dc,True,1,ds_dc,,f,off,blicket_images/ls.jpg,,0.0-34.0,,f,960,blicket_images/ls.jpg,146380,blicket,38,image-keyboard-response,
936,ds_dc,False,0,ds_dc,,f,off,blicket_images/dc.jpg,,0.0-36.0,,j,1847,blicket_images/dc.jpg,148972,blicket,40,image-keyboard-response,
936,ds_dc,True,1,ds_dc,blicket_images/dc.jpg,,dc,,blicket_images/dc.jpg,0.0-37.0,,dc,3806,"Which of these options shows the image from the last trial, that you just saw?",152780,pop_quiz,41,html-button-response,
936,ds_dc,True,1,ds_dc,,,['ds'],,,0.0-38.0,[0],['ds'],8161,,160944,rule_question,42,survey-multi-select,
980,ds_dc,True,1,ds_dc,,j,on,blicket_images/ds.jpg,,0.0-6.0,,j,4110,blicket_images/ds.jpg,95288,blicket,10,image-keyboard-response,
980,ds_dc,True,1,ds_dc,,f,off,blicket_images/dc.jpg,,0.0-8.0,,f,1592,blicket_images/dc.jpg,100884,blicket,12,image-keyboard-response,
980,ds_dc,True,1,ds_dc,,j,on,blicket_images/ds.jpg,,0.0-10.0,,j,1320,blicket_images/ds.jpg,105224,blicket,14,image-keyboard-response,
980,ds_dc,True,1,ds_dc,,f,off,blicket_images/dc.jpg,,0.0-12.0,,f,961,blicket_images/dc.jpg,107367,blicket,16,image-keyboard-response,
980,ds_dc,True,1,ds_dc,,j,on,blicket_images/ds.jpg,,0.0-14.0,,j,1177,blicket_images/ds.jpg,109549,blicket,18,image-keyboard-response,
980,ds_dc,False,0,ds_dc,,f,off,blicket_images/lc.jpg,,0.0-16.0,,j,2657,blicket_images/lc.jpg,113036,blicket,20,image-keyboard-response,
980,ds_dc,False,0,ds_dc,,f,off,blicket_images/ls.jpg,,0.0-18.0,,j,1508,blicket_images/ls.jpg,115986,blicket,22,image-keyboard-response,
980,ds_dc,True,1,ds_dc,,f,off,blicket_images/dc.jpg,,0.0-20.0,,f,1073,blicket_images/dc.jpg,118316,blicket,24,image-keyboard-response,
980,ds_dc,True,1,ds_dc,,f,off,blicket_images/lc.jpg,,0.0-22.0,,f,1286,blicket_images/lc.jpg,120863,blicket,26,image-keyboard-response,
980,ds_dc,True,1,ds_dc,,f,off,blicket_images/ls.jpg,,0.0-24.0,,f,1786,blicket_images/ls.jpg,123709,blicket,28,image-keyboard-response,
980,ds_dc,True,1,ds_dc,,f,off,blicket_images/lc.jpg,,0.0-26.0,,f,876,blicket_images/lc.jpg,125258,blicket,30,image-keyboard-response,
980,ds_dc,True,1,ds_dc,,j,on,blicket_images/ds.jpg,,0.0-28.0,,j,764,blicket_images/ds.jpg,126546,blicket,32,image-keyboard-response,
980,ds_dc,True,1,ds_dc,,f,off,blicket_images/ls.jpg,,0.0-30.0,,f,1011,blicket_images/ls.jpg,128097,blicket,34,image-keyboard-response,
980,ds_dc,True,1,ds_dc,,f,off,blicket_images/dc.jpg,,0.0-32.0,,f,869,blicket_images/dc.jpg,129478,blicket,36,image-keyboard-response,
980,ds_dc,True,1,ds_dc,,j,on,blicket_images/ds.jpg,,0.0-34.0,,j,1576,blicket_images/ds.jpg,131564,blicket,38,image-keyboard-response,
980,ds_dc,True,1,ds_dc,,f,off,blicket_images/dc.jpg,,0.0-36.0,,f,1016,blicket_images/dc.jpg,133045,blicket,40,image-keyboard-response,
980,ds_dc,True,1,ds_dc,blicket_images/dc.jpg,,dc,,blicket_images/dc.jpg,0.0-37.0,,dc,7369,"Which of these options shows the image from the last trial, that you just saw?",140419,pop_quiz,41,html-button-response,
980,ds_dc,True,1,ds_dc,,,['ds'],,,0.0-38.0,[0],['ds'],3977,,144404,rule_question,42,survey-multi-select,
944,ds_dc,False,0,ds_dc,,f,off,blicket_images/ls.jpg,,0.0-6.0,,j,5593,blicket_images/ls.jpg,107508,blicket,10,image-keyboard-response,
944,ds_dc,True,1,ds_dc,,j,on,blicket_images/ds.jpg,,0.0-8.0,,j,2718,blicket_images/ds.jpg,111499,blicket,12,image-keyboard-response,
