workerid,proliferate.condition,age,bonus,condition,ethnicity,feedback,gender,internal_node_id,overall_accuracy,race,response,rt,time_elapsed,trial,trial_index,trial_type,error
968,lc_lc,31,0.35000000000000003,lc_lc,Non-Hispanic,I used the outcome of the previous guesses to determine how I should respond on the next trial.,Male,0.0-40.0,0.875,White,"{'age': '31', 'race': 'White', 'gender': 'Male', 'feedback': 'I used the outcome of the previous guesses to determine how I should respond on the next trial.', 'ethnicity': 'Non-Hispanic', 'other_race': '', 'other_gender': ''}",48783,203537,exit_survey,44,survey-html-form,
892,lc_lc,75,0.35000000000000003,lc_lc,Non-Hispanic,"I sifted through what I saw in the beginning, by both shape and color, and if what I picked the first time was wrong, I picked opposite the next time.  I ended up with realizing three would not work (off) and only one would, and so ""looked"" for that one color and shape, specifically.  I hope this makes sense to you!",Female,0.0-40.0,0.875,White,"{'age': '75', 'race': 'White', 'gender': 'Female', 'feedback': 'I sifted through what I saw in the beginning, by both shape and color, and if what I picked the first time was wrong, I picked opposite the next time.  I ended up with realizing three would not work (off) and only one would, and so ""looked"" for that one color and shape, specifically.  I hope this makes sense to you!', 'ethnicity': 'Non-Hispanic', 'other_race': '', 'other_gender': ''}",296807,631868,exit_survey,44,survey-html-form,
884,lc_lc,41,0.375,lc_lc,Non-Hispanic,,Female,0.0-40.0,0.9375,White,"{'age': '41', 'race': 'White', 'gender': 'Female', 'feedback': '', 'ethnicity': 'Non-Hispanic', 'other_race': '', 'other_gender': ''}",12887,229065,exit_survey,50,survey-html-form,
876,lc_lc,31,0.35000000000000003,lc_lc,Non-Hispanic,"observation, no",Female,0.0-40.0,0.875,White,"{'age': '31', 'race': 'White', 'gender': 'Female', 'feedback': 'observation, no', 'ethnicity': 'Non-Hispanic', 'other_race': '', 'other_gender': ''}",20527,110194,exit_survey,44,survey-html-form,
916,lc_lc,54,0.2,lc_lc,Non-Hispanic,I just guessed.,Female,0.0-40.0,0.5,White,"{'age': '54', 'race': 'White', 'gender': 'Female', 'feedback': 'I just guessed.', 'ethnicity': 'Non-Hispanic', 'other_race': '', 'other_gender': ''}",21720,234850,exit_survey,44,survey-html-form,
868,lc_lc,69,0.30000000000000004,lc_lc,Non-Hispanic,First choice was a random guess. I chose the opposite answer for the second choice. I noted the answers and choose accordlingly.,Male,0.0-40.0,0.75,White,"{'age': '69', 'race': 'White', 'gender': 'Male', 'feedback': 'First choice was a random guess. I chose the opposite answer for the second choice. I noted the answers and choose accordlingly.', 'ethnicity': 'Non-Hispanic', 'other_race': '', 'other_gender': ''}",105768,433966,exit_survey,44,survey-html-form,
924,lc_lc,49,0.275,lc_lc,Non-Hispanic,"If my previous response to an object was wrong, I tried to change my response the next time I saw the object.",Female,0.0-40.0,0.6875,White,"{'age': '49', 'race': 'White', 'gender': 'Female', 'feedback': 'If my previous response to an object was wrong, I tried to change my response the next time I saw the object.', 'ethnicity': 'Non-Hispanic', 'other_race': '', 'other_gender': ''}",65733,313963,exit_survey,44,survey-html-form,
900,lc_lc,49,0.225,lc_lc,Non-Hispanic,tried to look for a pattern of shape and light/dark ,Female,0.0-40.0,0.5625,White,"{'age': '49', 'race': 'White', 'gender': 'Female', 'feedback': 'tried to look for a pattern of shape and light/dark ', 'ethnicity': 'Non-Hispanic', 'other_race': '', 'other_gender': ''}",32599,220279,exit_survey,50,survey-html-form,
982,lc_lc,54,0.325,lc_lc,Non-Hispanic,"I experimented quickly which each shade and shape to try to find a pattern. But, turns out it was just a single object, so there was no pattern",Male,0.0-40.0,0.8125,White,"{'age': '54', 'race': 'White', 'gender': 'Male', 'feedback': 'I experimented quickly which each shade and shape to try to find a pattern. But, turns out it was just a single object, so there was no pattern', 'ethnicity': 'Non-Hispanic', 'other_race': '', 'other_gender': ''}",46256,146497,exit_survey,44,survey-html-form,
860,lc_lc,36,0.30000000000000004,lc_lc,Non-Hispanic,I thought it was determined by light vs dark at first and then after trial and error realized it was only the light gray cylinder.,Female,0.0-40.0,0.75,White,"{'age': '36', 'race': 'White', 'gender': 'Female', 'feedback': 'I thought it was determined by light vs dark at first and then after trial and error realized it was only the light gray cylinder.', 'ethnicity': 'Non-Hispanic', 'other_race': '', 'other_gender': ''}",45593,151269,exit_survey,44,survey-html-form,
949,lc_lc,19,0.30000000000000004,lc_lc,Non-Hispanic,Light VS Dark shapes,Male,0.0-40.0,0.75,Multiracial,"{'age': '19', 'race': 'Multiracial', 'gender': 'Male', 'feedback': 'Light VS Dark shapes', 'ethnicity': 'Non-Hispanic', 'other_race': '', 'other_gender': ''}",16766,100818,exit_survey,44,survey-html-form,
932,lc_lc,51,0.325,lc_lc,Non-Hispanic,Thank you for the opportunity,Male,0.0-40.0,0.8125,White,"{'age': '51', 'race': 'White', 'gender': 'Male', 'feedback': 'Thank you for the opportunity', 'ethnicity': 'Non-Hispanic', 'other_race': '', 'other_gender': ''}",34983,215611,exit_survey,44,survey-html-form,
908,lc_lc,34,0.375,lc_lc,,good luck with your research,,0.0-40.0,0.9375,,"{'age': '34', 'feedback': 'good luck with your research', 'other_race': '', 'other_gender': ''}",10162,128266,exit_survey,44,survey-html-form,
958,lc_lc,33,0.225,lc_lc,Hispanic,,Male,0.0-40.0,0.5625,White,"{'age': '33', 'race': 'White', 'gender': 'Male', 'feedback': '', 'ethnicity': 'Hispanic', 'other_race': '', 'other_gender': ''}",7929,187077,exit_survey,62,survey-html-form,
975,lc_lc,23,0.35000000000000003,lc_lc,Hispanic,I just went off the first correct choice in how I responded with the rest of my answers.,Male,0.0-40.0,0.875,White,"{'age': '23', 'race': 'White', 'gender': 'Male', 'feedback': 'I just went off the first correct choice in how I responded with the rest of my answers.', 'ethnicity': 'Hispanic', 'other_race': '', 'other_gender': ''}",41502,156949,exit_survey,44,survey-html-form,
956,ds_ds,32,0.325,ds_ds,Non-Hispanic,"I found the only object that was a blicket (the dark colored square object), so if that object showed, the blicket machine was turned on. All the other objects were not blickets.",Male,0.0-40.0,0.8125,White,"{'age': '32', 'race': 'White', 'gender': 'Male', 'feedback': 'I found the only object that was a blicket (the dark colored square object), so if that object showed, the blicket machine was turned on. All the other objects were not blickets.', 'ethnicity': 'Non-Hispanic', 'other_race': '', 'other_gender': ''}",42579,170083,exit_survey,44,survey-html-form,
939,ds_ds,36,0.35000000000000003,ds_ds,Non-Hispanic,"At first it was just random guessing.  I got the first two correct and they were both cylinders which didn't turn the machine on, so I thought that only cubes turned the machine on.  I tried to mark the light cube as a blicket but it was wrong, so I figured only the dark cube must be a blicket and I kept going with that assumption throughout the rest of the test and it seemed to hold up every time.",Male,0.0-40.0,0.875,White,"{'age': '36', 'race': 'White', 'gender': 'Male', 'feedback': ""At first it was just random guessing.  I got the first two correct and they were both cylinders which didn't turn the machine on, so I thought that only cubes turned the machine on.  I tried to mark the light cube as a blicket but it was wrong, so I figured only the dark cube must be a blicket and I kept going with that assumption throughout the rest of the test and it seemed to hold up every time."", 'ethnicity': 'Non-Hispanic', 'other_race': '', 'other_gender': ''}",113674,265605,exit_survey,44,survey-html-form,
891,ds_ds,30,0.35000000000000003,ds_ds,Non-Hispanic,,Female,0.0-40.0,0.875,White,"{'age': '30', 'race': 'White', 'gender': 'Female', 'feedback': '', 'ethnicity': 'Non-Hispanic', 'other_race': '', 'other_gender': ''}",9706,176461,exit_survey,44,survey-html-form,
883,ds_ds,23,0.30000000000000004,ds_ds,Hispanic,"I originally clicked yes for the 3 blocks and assumed one of them would be a blicket. However, when it kept saying it was incorrect, I chose ""not a blicket"" thinking that maybe none of them were blickets. The last block was a blicket though.",Female,0.0-40.0,0.75,White,"{'age': '23', 'race': 'White', 'gender': 'Female', 'feedback': 'I originally clicked yes for the 3 blocks and assumed one of them would be a blicket. However, when it kept saying it was incorrect, I chose ""not a blicket"" thinking that maybe none of them were blickets. The last block was a blicket though.', 'ethnicity': 'Hispanic', 'other_race': '', 'other_gender': ''}",116783,358270,exit_survey,44,survey-html-form,
859,ds_ds,28,0.35000000000000003,ds_ds,Non-Hispanic,Color and shape,Female,0.0-40.0,0.875,White,"{'age': '28', 'race': 'White', 'gender': 'Female', 'feedback': 'Color and shape', 'ethnicity': 'Non-Hispanic', 'other_race': '', 'other_gender': ''}",18777,199185,exit_survey,44,survey-html-form,
899,ds_ds,19,0.375,ds_ds,Non-Hispanic,,Female,0.0-40.0,0.9375,White,"{'age': '19', 'race': 'White', 'gender': 'Female', 'feedback': '', 'ethnicity': 'Non-Hispanic', 'other_race': '', 'other_gender': ''}",25820,127156,exit_survey,44,survey-html-form,
915,ds_ds,32,0.225,ds_ds,Non-Hispanic,Trying to find a pattern.,Male,0.0-40.0,0.5625,White,"{'age': '32', 'race': 'White', 'gender': 'Male', 'feedback': 'Trying to find a pattern.', 'ethnicity': 'Non-Hispanic', 'other_race': '', 'other_gender': ''}",16196,749692,exit_survey,44,survey-html-form,
922,ds_ds,50,0.2,ds_ds,Non-Hispanic,Trying to remember which ones were and were not blickets.,Female,0.0-40.0,0.5,Black/African American,"{'age': '50', 'race': 'Black/African American', 'gender': 'Female', 'feedback': 'Trying to remember which ones were and were not blickets.', 'ethnicity': 'Non-Hispanic', 'other_race': '', 'other_gender': ''}",41884,230257,exit_survey,44,survey-html-form,
965,ds_ds,49,0.17500000000000002,ds_ds,Non-Hispanic,I felt that if I stayed with no I would find the blinket,Female,0.0-40.0,0.4375,White,"{'age': '49', 'race': 'White', 'gender': 'Female', 'feedback': 'I felt that if I stayed with no I would find the blinket', 'ethnicity': 'Non-Hispanic', 'other_race': '', 'other_gender': ''}",33127,160885,exit_survey,44,survey-html-form,
981,ds_ds,46,0.225,ds_ds,Non-Hispanic,I picked on for almost everything until I had a sense of the shapes and I sure wish I had picked off instead.,Female,0.0-40.0,0.5625,White,"{'age': '46', 'race': 'White', 'gender': 'Female', 'feedback': 'I picked on for almost everything until I had a sense of the shapes and I sure wish I had picked off instead.', 'ethnicity': 'Non-Hispanic', 'other_race': '', 'other_gender': ''}",70744,398627,exit_survey,44,survey-html-form,
875,ds_ds,72,0.25,ds_ds,Non-Hispanic,,Female,0.0-40.0,0.625,White,"{'age': '72', 'race': 'White', 'gender': 'Female', 'feedback': '', 'ethnicity': 'Non-Hispanic', 'other_race': '', 'other_gender': ''}",29523,242473,exit_survey,44,survey-html-form,
905,ds_ds,40,0.275,ds_ds,Non-Hispanic,the shape and color of the object. no extra questions,Male,0.0-40.0,0.6875,White,"{'age': '40', 'race': 'White', 'gender': 'Male', 'feedback': 'the shape and color of the object. no extra questions', 'ethnicity': 'Non-Hispanic', 'other_race': '', 'other_gender': ''}",73891,270461,exit_survey,44,survey-html-form,
866,ds_ds,46,0.325,ds_ds,Non-Hispanic,,Female,0.0-40.0,0.8125,White,"{'age': '46', 'race': 'White', 'gender': 'Female', 'feedback': '', 'ethnicity': 'Non-Hispanic', 'other_race': '', 'other_gender': ''}",21405,215268,exit_survey,44,survey-html-form,
972,ds_ds,22,0.30000000000000004,ds_ds,Non-Hispanic,I remembered which I got wrong.,Female,0.0-40.0,0.75,White,"{'age': '22', 'race': 'White', 'gender': 'Female', 'feedback': 'I remembered which I got wrong.', 'ethnicity': 'Non-Hispanic', 'other_race': '', 'other_gender': ''}",18760,112957,exit_survey,50,survey-html-form,
948,ds_ds,53,0.325,ds_ds,Non-Hispanic,I focused on the shape of the object then realized that the color also mattered ,Male,0.0-40.0,0.8125,Asian,"{'age': '53', 'race': 'Asian', 'gender': 'Male', 'feedback': 'I focused on the shape of the object then realized that the color also mattered ', 'ethnicity': 'Non-Hispanic', 'other_race': '', 'other_gender': ''}",41830,201836,exit_survey,44,survey-html-form,
919,ds_dc,33,0.1,ds_dc,Hispanic,Can't find a way to tell which objects are blickets.,Male,0.0-40.0,0.25,Multiracial,"{'age': '33', 'race': 'Multiracial', 'gender': 'Male', 'feedback': ""Can't find a way to tell which objects are blickets."", 'ethnicity': 'Hispanic', 'other_race': 'Hispanic', 'other_gender': ''}",82612,276790,exit_survey,50,survey-html-form,
856,ds_dc,91,0.30000000000000004,ds_dc,Non-Hispanic,F and J are too close together,Female,0.0-40.0,0.75,White,"{'age': '91', 'race': 'White', 'gender': 'Female', 'feedback': 'F and J are too close together', 'ethnicity': 'Non-Hispanic', 'other_race': '', 'other_gender': ''}",44965,263234,exit_survey,44,survey-html-form,
902,ds_dc,36,0.30000000000000004,ds_dc,Non-Hispanic,obviously i had no idea at first and then responded based on guesses about shape and/or color?,Non-binary,0.0-40.0,0.75,Asian,"{'age': '36', 'race': 'Asian', 'gender': 'Non-binary', 'feedback': 'obviously i had no idea at first and then responded based on guesses about shape and/or color?', 'ethnicity': 'Non-Hispanic', 'other_race': '', 'other_gender': ''}",25617,110203,exit_survey,44,survey-html-form,
890,ds_dc,39,0.325,ds_dc,Non-Hispanic,I thought about each object that I saw and categorized it in my head. I remembered the light objects were not blickets. Then I realized that only one dark object was a blicket. ,Female,0.0-40.0,0.8125,White,"{'age': '39', 'race': 'White', 'gender': 'Female', 'feedback': 'I thought about each object that I saw and categorized it in my head. I remembered the light objects were not blickets. Then I realized that only one dark object was a blicket. ', 'ethnicity': 'Non-Hispanic', 'other_race': '', 'other_gender': ''}",38414,185673,exit_survey,44,survey-html-form,
951,ds_dc,39,0.225,ds_dc,Non-Hispanic,,Female,0.0-40.0,0.5625,Multiracial,"{'age': '39', 'race': 'Multiracial', 'gender': 'Female', 'feedback': '', 'ethnicity': 'Non-Hispanic', 'other_race': '', 'other_gender': ''}",12224,207417,exit_survey,50,survey-html-form,
929,ds_dc,43,0.35000000000000003,ds_dc,Non-Hispanic,I guessed at first and then remembered which ones were which.,Non-binary,0.0-40.0,0.875,White,"{'age': '43', 'race': 'White', 'gender': 'Non-binary', 'feedback': 'I guessed at first and then remembered which ones were which.', 'ethnicity': 'Non-Hispanic', 'other_race': '', 'other_gender': ''}",23598,168687,exit_survey,44,survey-html-form,
874,ds_dc,26,0.4,ds_dc,,After getting the first question right I knew what all the other answers had to be.,Non-binary,0.0-40.0,1,White,"{'age': '26', 'race': 'White', 'gender': 'Non-binary', 'feedback': 'After getting the first question right I knew what all the other answers had to be.', 'other_race': '', 'other_gender': ''}",75762,336435,exit_survey,44,survey-html-form,
909,ds_dc,63,0.375,ds_dc,Non-Hispanic,,Male,0.0-40.0,0.9375,White,"{'age': '63', 'race': 'White', 'gender': 'Male', 'feedback': '', 'ethnicity': 'Non-Hispanic', 'other_race': '', 'other_gender': ''}",23183,196977,exit_survey,44,survey-html-form,
936,ds_dc,38,0.275,ds_dc,Non-Hispanic,I labeled them all blickets at first and learned which was a blicket.,Female,0.0-40.0,0.6875,White,"{'age': '38', 'race': 'White', 'gender': 'Female', 'feedback': 'I labeled them all blickets at first and learned which was a blicket.', 'ethnicity': 'Non-Hispanic', 'other_race': '', 'other_gender': ''}",52617,217723,exit_survey,44,survey-html-form,
980,ds_dc,46,0.35000000000000003,ds_dc,Non-Hispanic,trial and error,Female,0.0-40.0,0.875,White,"{'age': '46', 'race': 'White', 'gender': 'Female', 'feedback': 'trial and error', 'ethnicity': 'Non-Hispanic', 'other_race': '', 'other_gender': ''}",20331,167332,exit_survey,44,survey-html-form,
944,ds_dc,52,0.275,ds_dc,Hispanic,,Male,0.0-40.0,0.6875,White,"{'age': '52', 'race': 'White', 'gender': 'Male', 'feedback': '', 'ethnicity': 'Hispanic', 'other_race': '', 'other_gender': ''}",25391,198790,exit_survey,44,survey-html-form,
897,ds_dc,51,0.30000000000000004,ds_dc,Non-Hispanic,"had to figure out which shape turned it on when I knew that the dark cube was the only one that turned the machine on out of all of them, then i knew how to answer correctly.",Female,0.0-40.0,0.75,White,"{'age': '51', 'race': 'White', 'gender': 'Female', 'feedback': 'had to figure out which shape turned it on when I knew that the dark cube was the only one that turned the machine on out of all of them, then i knew how to answer correctly.', 'ethnicity': 'Non-Hispanic', 'other_race': '', 'other_gender': ''}",53051,365747,exit_survey,44,survey-html-form,
863,ds_dc,24,0.25,ds_dc,Non-Hispanic,,Female,0.0-40.0,0.625,Asian,"{'age': '24', 'race': 'Asian', 'gender': 'Female', 'feedback': '', 'ethnicity': 'Non-Hispanic', 'other_race': '', 'other_gender': ''}",11560,117802,exit_survey,44,survey-html-form,
971,ds_dc,49,0.325,ds_dc,Non-Hispanic,tried to remember which one was correct,Female,0.0-40.0,0.8125,White,"{'age': '49', 'race': 'White', 'gender': 'Female', 'feedback': 'tried to remember which one was correct', 'ethnicity': 'Non-Hispanic', 'other_race': '', 'other_gender': ''}",29257,355160,exit_survey,44,survey-html-form,
959,ds_dc,41,0.325,ds_dc,Non-Hispanic,Using trial and error since alternative options were not clearly explained for non-blickets.,Non-binary,0.0-40.0,0.8125,White,"{'age': '41', 'race': 'White', 'gender': 'Non-binary', 'feedback': 'Using trial and error since alternative options were not clearly explained for non-blickets.', 'ethnicity': 'Non-Hispanic', 'other_race': '', 'other_gender': ''}",55871,364581,exit_survey,50,survey-html-form,
974,lc_dc,36,0.325,lc_dc,Non-Hispanic,,Male,0.0-40.0,0.8125,Black/African American,"{'age': '36', 'race': 'Black/African American', 'gender': 'Male', 'feedback': '', 'ethnicity': 'Non-Hispanic', 'other_race': '', 'other_gender': ''}",11816,154493,exit_survey,44,survey-html-form,
964,lc_dc,46,0.375,lc_dc,Non-Hispanic,In the beginnig it showed a light circle as turning the object on. I figured I would keep with that. ,Female,0.0-40.0,0.9375,Black/African American,"{'age': '46', 'race': 'Black/African American', 'gender': 'Female', 'feedback': 'In the beginnig it showed a light circle as turning the object on. I figured I would keep with that. ', 'ethnicity': 'Non-Hispanic', 'other_race': '', 'other_gender': ''}",42831,218548,exit_survey,44,survey-html-form,
930,lc_dc,25,0.225,lc_dc,Non-Hispanic,,Female,0.0-40.0,0.5625,White,"{'age': '25', 'race': 'White', 'gender': 'Female', 'feedback': '', 'ethnicity': 'Non-Hispanic', 'other_race': '', 'other_gender': ''}",12840,138992,exit_survey,44,survey-html-form,
912,lc_dc,29,0.15000000000000002,lc_dc,Non-Hispanic,that was almost completely random,Non-binary,0.0-40.0,0.375,White,"{'age': '29', 'race': 'White', 'gender': 'Non-binary', 'feedback': 'that was almost completely random', 'ethnicity': 'Non-Hispanic', 'other_race': '', 'other_gender': ''}",16115,177521,exit_survey,50,survey-html-form,
954,lc_dc,38,0.25,lc_dc,Hispanic,"Tried using my gut, but didn't seem to answer correctly at first.",Female,0.0-40.0,0.625,Hispanic,"{'age': '38', 'race': 'other_race', 'gender': 'Female', 'feedback': ""Tried using my gut, but didn't seem to answer correctly at first."", 'ethnicity': 'Hispanic', 'other_race': 'Hispanic', 'other_gender': ''}",50435,306208,exit_survey,44,survey-html-form,
984,lc_dc,38,0.275,lc_dc,Non-Hispanic,Thank you,Male,0.0-40.0,0.6875,White,"{'age': '38', 'race': 'White', 'gender': 'Male', 'feedback': 'Thank you', 'ethnicity': 'Non-Hispanic', 'other_race': '', 'other_gender': ''}",30444,303175,exit_survey,50,survey-html-form,
955,lc_dc,31,0.30000000000000004,lc_dc,Non-Hispanic,"I tried all of them as ""on"" at least once to test them.",Male,0.0-40.0,0.75,White,"{'age': '31', 'race': 'White', 'gender': 'Male', 'feedback': 'I tried all of them as ""on"" at least once to test them.', 'ethnicity': 'Non-Hispanic', 'other_race': '', 'other_gender': ''}",32598,101646,exit_survey,44,survey-html-form,
921,lc_dc,60,0.375,lc_dc,Non-Hispanic,my decision was mostly based on deduction. Interesting experiment.,Female,0.0-40.0,0.9375,White,"{'age': '60', 'race': 'White', 'gender': 'Female', 'feedback': 'my decision was mostly based on deduction. Interesting experiment.', 'ethnicity': 'Non-Hispanic', 'other_race': '', 'other_gender': ''}",88106,505034,exit_survey,44,survey-html-form,
903,lc_dc,22,0.325,lc_dc,Hispanic,There were no other factors. I just followed the instructions and arranged the blickets into categories to help me answer.,Female,0.0-40.0,0.8125,White,"{'age': '22', 'race': 'White', 'gender': 'Female', 'feedback': 'There were no other factors. I just followed the instructions and arranged the blickets into categories to help me answer.', 'ethnicity': 'Hispanic', 'other_race': '', 'other_gender': ''}",42185,181049,exit_survey,44,survey-html-form,
873,lc_dc,23,0.30000000000000004,lc_dc,Non-Hispanic,,Male,0.0-40.0,0.75,Multiracial,"{'age': '23', 'race': 'Multiracial', 'gender': 'Male', 'feedback': '', 'ethnicity': 'Non-Hispanic', 'other_race': '', 'other_gender': ''}",11033,300162,exit_survey,50,survey-html-form,
864,lc_dc,50,0.275,lc_dc,Non-Hispanic,,Female,0.0-40.0,0.6875,White,"{'age': '50', 'race': 'White', 'gender': 'Female', 'feedback': '', 'ethnicity': 'Non-Hispanic', 'other_race': '', 'other_gender': ''}",9077,195529,exit_survey,44,survey-html-form,
938,lc_dc,37,0.35000000000000003,lc_dc,Non-Hispanic,"i was able to narrow down between light and dark, then between cubes and cylinders based on the first couple trials through trial and error. ",Male,0.0-40.0,0.875,White,"{'age': '37', 'race': 'White', 'gender': 'Male', 'feedback': 'i was able to narrow down between light and dark, then between cubes and cylinders based on the first couple trials through trial and error. ', 'ethnicity': 'Non-Hispanic', 'other_race': '', 'other_gender': ''}",41381,175766,exit_survey,44,survey-html-form,
946,lc_dc,64,0.30000000000000004,lc_dc,Non-Hispanic,i just needed to remember which ones were for on and which for off,Female,0.0-40.0,0.75,White,"{'age': '64', 'race': 'White', 'gender': 'Female', 'feedback': 'i just needed to remember which ones were for on and which for off', 'ethnicity': 'Non-Hispanic', 'other_race': '', 'other_gender': ''}",41702,209733,exit_survey,44,survey-html-form,
889,lc_dc,30,0.35000000000000003,lc_dc,Hispanic,The only influence was my own judgment.,Male,0.0-40.0,0.875,Multiracial,"{'age': '30', 'race': 'Multiracial', 'gender': 'Male', 'feedback': 'The only influence was my own judgment.', 'ethnicity': 'Hispanic', 'other_race': '', 'other_gender': ''}",56121,226182,exit_survey,44,survey-html-form,
858,lc_dc,28,0.25,lc_dc,Non-Hispanic,,Female,0.0-40.0,0.625,Asian,"{'age': '28', 'race': 'Asian', 'gender': 'Female', 'feedback': '', 'ethnicity': 'Non-Hispanic', 'other_race': '', 'other_gender': ''}",9342,113175,exit_survey,44,survey-html-form,
953,ds_ls,28,0.325,ds_ls,Non-Hispanic,"first for shape, then for color, process of elimination.",Male,0.0-40.0,0.8125,Multiracial,"{'age': '28', 'race': 'Multiracial', 'gender': 'Male', 'feedback': 'first for shape, then for color, process of elimination.', 'ethnicity': 'Non-Hispanic', 'other_race': '', 'other_gender': ''}",33970,199898,exit_survey,44,survey-html-form,
861,ds_ls,27,0.325,ds_ls,Non-Hispanic,I tried to determine if the shape had an impact on whether the machine was on and then whether the color had an impact.,Female,0.0-40.0,0.8125,Asian,"{'age': '27', 'race': 'Asian', 'gender': 'Female', 'feedback': 'I tried to determine if the shape had an impact on whether the machine was on and then whether the color had an impact.', 'ethnicity': 'Non-Hispanic', 'other_race': '', 'other_gender': ''}",54295,269471,exit_survey,44,survey-html-form,
960,ds_ls,69,0.35000000000000003,ds_ls,Non-Hispanic,I just guessed at first and then knew the only blinket was the dark cube that would turn the machine on.,Female,0.0-40.0,0.875,White,"{'age': '69', 'race': 'White', 'gender': 'Female', 'feedback': 'I just guessed at first and then knew the only blinket was the dark cube that would turn the machine on.', 'ethnicity': 'Non-Hispanic', 'other_race': '', 'other_gender': ''}",72852,317646,exit_survey,44,survey-html-form,
907,ds_ls,24,0.15000000000000002,ds_ls,Non-Hispanic,i just went with my gut,Female,0.0-40.0,0.375,White,"{'age': '24', 'race': 'White', 'gender': 'Female', 'feedback': 'i just went with my gut', 'ethnicity': 'Non-Hispanic', 'other_race': '', 'other_gender': ''}",22529,223789,exit_survey,44,survey-html-form,
979,ds_ls,65,0.225,ds_ls,Non-Hispanic,just random since you didn't say which was which,Female,0.0-40.0,0.5625,Black/African American,"{'age': '65', 'race': 'Black/African American', 'gender': 'Female', 'feedback': ""just random since you didn't say which was which"", 'ethnicity': 'Non-Hispanic', 'other_race': '', 'other_gender': ''}",58365,299978,exit_survey,44,survey-html-form,
942,ds_ls,32,0.2,ds_ls,Non-Hispanic,I just tried to remember what did and did not work and I tried to use the same rules for other blickets before I knew if it worked or not. ,Female,0.0-40.0,0.5,White,"{'age': '32', 'race': 'White', 'gender': 'Female', 'feedback': 'I just tried to remember what did and did not work and I tried to use the same rules for other blickets before I knew if it worked or not. ', 'ethnicity': 'Non-Hispanic', 'other_race': '', 'other_gender': ''}",38580,179182,exit_survey,44,survey-html-form,
880,ds_ls,41,0.325,ds_ls,Non-Hispanic,"light or dark, shapes, all cylinders are not blickets",Male,0.0-40.0,0.8125,White,"{'age': '41', 'race': 'White', 'gender': 'Male', 'feedback': 'light or dark, shapes, all cylinders are not blickets', 'ethnicity': 'Non-Hispanic', 'other_race': '', 'other_gender': ''}",35863,135012,exit_survey,44,survey-html-form,
857,ds_ls,32,0.325,ds_ls,Non-Hispanic,Once I had answered once for each block I knew if it would turn on the machine.,Male,0.0-40.0,0.8125,White,"{'age': '32', 'race': 'White', 'gender': 'Male', 'feedback': 'Once I had answered once for each block I knew if it would turn on the machine.', 'ethnicity': 'Non-Hispanic', 'other_race': '', 'other_gender': ''}",97295,363474,exit_survey,44,survey-html-form,
869,ds_ls,60,0.275,ds_ls,Non-Hispanic,I was trying to see the ones that I got wrong and then make my choice.,Female,0.0-40.0,0.6875,White,"{'age': '60', 'race': 'White', 'gender': 'Female', 'feedback': 'I was trying to see the ones that I got wrong and then make my choice.', 'ethnicity': 'Non-Hispanic', 'other_race': '', 'other_gender': ''}",48356,367110,exit_survey,44,survey-html-form,
918,ds_ls,36,0.325,ds_ls,Non-Hispanic,There was no specific factor. ,Female,0.0-40.0,0.8125,White,"{'age': '36', 'race': 'White', 'gender': 'Female', 'feedback': 'There was no specific factor. ', 'ethnicity': 'Non-Hispanic', 'other_race': '', 'other_gender': ''}",16586,179660,exit_survey,50,survey-html-form,
934,ds_ls,35,0.17500000000000002,ds_ls,Non-Hispanic,I honestly tried to go with my gut. I tried to stay with the patterns.,Female,0.0-40.0,0.4375,Black/African American,"{'age': '35', 'race': 'Black/African American', 'gender': 'Female', 'feedback': 'I honestly tried to go with my gut. I tried to stay with the patterns.', 'ethnicity': 'Non-Hispanic', 'other_race': '', 'other_gender': ''}",28576,182262,exit_survey,44,survey-html-form,
911,ds_ls,36,0.15000000000000002,ds_ls,Non-Hispanic,"I got too many wrong before I noticed a pattern, it was kind of random, if I had started at another shape or color then I might have gotten to the pattern quicker. But with only 16 trials, the trial and error erred to the side of error. ",Male,0.0-40.0,0.375,Black/African American,"{'age': '36', 'race': 'Black/African American', 'gender': 'Male', 'feedback': 'I got too many wrong before I noticed a pattern, it was kind of random, if I had started at another shape or color then I might have gotten to the pattern quicker. But with only 16 trials, the trial and error erred to the side of error. ', 'ethnicity': 'Non-Hispanic', 'other_race': '', 'other_gender': ''}",64294,266346,exit_survey,44,survey-html-form,
970,ds_ls,44,0.2,ds_ls,Non-Hispanic,as i went along I was trying to determine the blinket I think with more trials and practice I would have mastered it,Female,0.0-40.0,0.5,White,"{'age': '44', 'race': 'White', 'gender': 'Female', 'feedback': 'as i went along I was trying to determine the blinket I think with more trials and practice I would have mastered it', 'ethnicity': 'Non-Hispanic', 'other_race': '', 'other_gender': ''}",89971,333402,exit_survey,44,survey-html-form,
927,ds_ls,81,0.25,ds_ls,,"I didn't take notes and my short term memory is terrible. Had i taken notes (i thought about that), my error rate would have been at least half what it was. Since this is a cognition study i decided notes was not recommended.",Male,0.0-40.0,0.625,White,"{'age': '81', 'race': 'White', 'gender': 'Male', 'feedback': ""I didn't take notes and my short term memory is terrible. Had i taken notes (i thought about that), my error rate would have been at least half what it was. Since this is a cognition study i decided notes was not recommended."", 'other_race': '', 'other_gender': ''}",193881,637803,exit_survey,44,survey-html-form,
895,ds_ls,49,0.225,ds_ls,Non-Hispanic,,Female,0.0-40.0,0.5625,White,"{'age': '49', 'race': 'White', 'gender': 'Female', 'feedback': '', 'ethnicity': 'Non-Hispanic', 'other_race': '', 'other_gender': ''}",15863,222979,exit_survey,44,survey-html-form,
966,lc_ds,38,0.275,lc_ds,Non-Hispanic,shape and color ,Female,0.0-40.0,0.6875,White,"{'age': '38', 'race': 'White', 'gender': 'Female', 'feedback': 'shape and color ', 'ethnicity': 'Non-Hispanic', 'other_race': '', 'other_gender': ''}",21591,171884,exit_survey,44,survey-html-form,
973,lc_ds,23,0.325,lc_ds,Non-Hispanic,,Male,0.0-40.0,0.8125,White,"{'age': '23', 'race': 'White', 'gender': 'Male', 'feedback': '', 'ethnicity': 'Non-Hispanic', 'other_race': '', 'other_gender': ''}",13351,114627,exit_survey,44,survey-html-form,
945,lc_ds,38,0.225,lc_ds,Hispanic,The shade of the shape influenced my decisions.,Female,0.0-40.0,0.5625,Multiracial,"{'age': '38', 'race': 'Multiracial', 'gender': 'Female', 'feedback': 'The shade of the shape influenced my decisions.', 'ethnicity': 'Hispanic', 'other_race': '', 'other_gender': ''}",57521,220395,exit_survey,44,survey-html-form,
962,lc_ds,29,0.325,lc_ds,Non-Hispanic,,Male,0.0-40.0,0.8125,White,"{'age': '29', 'race': 'White', 'gender': 'Male', 'feedback': '', 'ethnicity': 'Non-Hispanic', 'other_race': '', 'other_gender': ''}",9845,181043,exit_survey,44,survey-html-form,
879,lc_ds,25,0.30000000000000004,lc_ds,Non-Hispanic,if the answer is correct or incorrect,Female,0.0-40.0,0.75,White,"{'age': '25', 'race': 'White', 'gender': 'Female', 'feedback': 'if the answer is correct or incorrect', 'ethnicity': 'Non-Hispanic', 'other_race': '', 'other_gender': ''}",23729,161083,exit_survey,44,survey-html-form,
952,lc_ds,57,0.275,lc_ds,Non-Hispanic,I should have figured out which object was the blicket faster! This was a fun experiment.,Female,0.0-40.0,0.6875,White,"{'age': '57', 'race': 'White', 'gender': 'Female', 'feedback': 'I should have figured out which object was the blicket faster! This was a fun experiment.', 'ethnicity': 'Non-Hispanic', 'other_race': '', 'other_gender': ''}",60432,256055,exit_survey,44,survey-html-form,
963,lc_ds,44,0.325,lc_ds,Non-Hispanic,light-colored squares seemed to be blickets,Female,0.0-40.0,0.8125,White,"{'age': '44', 'race': 'White', 'gender': 'Female', 'feedback': 'light-colored squares seemed to be blickets', 'ethnicity': 'Non-Hispanic', 'other_race': '', 'other_gender': ''}",44956,431106,exit_survey,44,survey-html-form,
937,lc_ds,36,0.17500000000000002,lc_ds,Non-Hispanic,"My task was to observe the Blicket Machine in action and figure out which of the blocks were Blickets, which made the machine turn on.",Male,0.0-40.0,0.4375,White,"{'age': '36', 'race': 'White', 'gender': 'Male', 'feedback': 'My task was to observe the Blicket Machine in action and figure out which of the blocks were Blickets, which made the machine turn on.', 'ethnicity': 'Non-Hispanic', 'other_race': '', 'other_gender': ''}",111851,493814,exit_survey,50,survey-html-form,
855,lc_ds,23,0.35000000000000003,lc_ds,Non-Hispanic,I don't have any questions,Male,0.0-40.0,0.875,White,"{'age': '23', 'race': 'White', 'gender': 'Male', 'feedback': ""I don't have any questions"", 'ethnicity': 'Non-Hispanic', 'other_race': '', 'other_gender': ''}",12059,118278,exit_survey,44,survey-html-form,
872,lc_ds,25,0.17500000000000002,lc_ds,Non-Hispanic,,Female,0.0-40.0,0.4375,Asian,"{'age': '25', 'race': 'Asian', 'gender': 'Female', 'feedback': '', 'ethnicity': 'Non-Hispanic', 'other_race': '', 'other_gender': ''}",9977,233481,exit_survey,44,survey-html-form,
985,lc_ds,31,0.15000000000000002,lc_ds,Non-Hispanic,I tried to just follow the pattern. I might have either gotten crossed up or the Blicket machine might not be 100% reliable.,Male,0.0-40.0,0.375,White,"{'age': '31', 'race': 'White', 'gender': 'Male', 'feedback': 'I tried to just follow the pattern. I might have either gotten crossed up or the Blicket machine might not be 100% reliable.', 'ethnicity': 'Non-Hispanic', 'other_race': '', 'other_gender': ''}",49141,228556,exit_survey,44,survey-html-form,
904,lc_ds,60,0.2,lc_ds,Non-Hispanic,,Male,0.0-40.0,0.5,White,"{'age': '60', 'race': 'White', 'gender': 'Male', 'feedback': '', 'ethnicity': 'Non-Hispanic', 'other_race': '', 'other_gender': ''}",17679,194129,exit_survey,44,survey-html-form,
887,lc_ds,51,0.35000000000000003,lc_ds,Non-Hispanic,,Female,0.0-40.0,0.875,White,"{'age': '51', 'race': 'White', 'gender': 'Female', 'feedback': '', 'ethnicity': 'Non-Hispanic', 'other_race': '', 'other_gender': ''}",11645,125726,exit_survey,44,survey-html-form,
983,lc_ds,59,0.375,lc_ds,Non-Hispanic,"At first I was just guessing, then tried to remember which one worked.",Female,0.0-40.0,0.9375,Asian,"{'age': '59', 'race': 'Asian', 'gender': 'Female', 'feedback': 'At first I was just guessing, then tried to remember which one worked.', 'ethnicity': 'Non-Hispanic', 'other_race': '', 'other_gender': ''}",57973,366210,exit_survey,44,survey-html-form,
867,lc_ds,45,0.30000000000000004,lc_ds,Non-Hispanic,The wording and instructions were so poor I can only assume that was part of the task.,Male,0.0-40.0,0.75,White,"{'age': '45', 'race': 'White', 'gender': 'Male', 'feedback': 'The wording and instructions were so poor I can only assume that was part of the task.', 'ethnicity': 'Non-Hispanic', 'other_race': '', 'other_gender': ''}",52291,192031,exit_survey,44,survey-html-form,
969,lc_ls,67,0.225,lc_ls,Non-Hispanic,I was guessing on most decisions.  I couldn't determine the on or off positions,Male,0.0-40.0,0.5625,White,"{'age': '67', 'race': 'White', 'gender': 'Male', 'feedback': ""I was guessing on most decisions.  I couldn't determine the on or off positions"", 'ethnicity': 'Non-Hispanic', 'other_race': '', 'other_gender': ''}",58979,250304,exit_survey,50,survey-html-form,
943,lc_ls,63,0.325,lc_ls,Non-Hispanic,"I tested each one when they first came up, to determine which one turned the blicket machine on.",Female,0.0-40.0,0.8125,White,"{'age': '63', 'race': 'White', 'gender': 'Female', 'feedback': 'I tested each one when they first came up, to determine which one turned the blicket machine on.', 'ethnicity': 'Non-Hispanic', 'other_race': '', 'other_gender': ''}",40012,254051,exit_survey,44,survey-html-form,
978,lc_ls,29,0.35000000000000003,lc_ls,Hispanic,,Male,0.0-40.0,0.875,White,"{'age': '29', 'race': 'White', 'gender': 'Male', 'feedback': '', 'ethnicity': 'Hispanic', 'other_race': '', 'other_gender': ''}",69032,247411,exit_survey,44,survey-html-form,
901,lc_ls,26,0.275,lc_ls,Non-Hispanic,"The first time I saw a shape, I just randomly chose a response. Then I adjusted my answers based on whether or not I was correct.",Female,0.0-40.0,0.6875,White,"{'age': '26', 'race': 'White', 'gender': 'Female', 'feedback': 'The first time I saw a shape, I just randomly chose a response. Then I adjusted my answers based on whether or not I was correct.', 'ethnicity': 'Non-Hispanic', 'other_race': '', 'other_gender': ''}",94773,213854,exit_survey,44,survey-html-form,
917,lc_ls,30,0.30000000000000004,lc_ls,Non-Hispanic,I just went with my gut and then tried to adjust to the feedback.,Male,0.0-40.0,0.75,White,"{'age': '30', 'race': 'White', 'gender': 'Male', 'feedback': 'I just went with my gut and then tried to adjust to the feedback.', 'ethnicity': 'Non-Hispanic', 'other_race': '', 'other_gender': ''}",39019,165849,exit_survey,44,survey-html-form,
926,lc_ls,19,0.25,lc_ls,Hispanic,There could have been a explanation which makes it easier for us to know what to do. ,Female,0.0-40.0,0.625,White,"{'age': '19', 'race': 'White', 'gender': 'Female', 'feedback': 'There could have been a explanation which makes it easier for us to know what to do. ', 'ethnicity': 'Hispanic', 'other_race': '', 'other_gender': ''}",32662,187006,exit_survey,50,survey-html-form,
893,lc_ls,35,0.325,lc_ls,Non-Hispanic,"I tried to remember the combination of colors and shapes (cylinders tended to work for the machine versus squares, white more than black), but I also found myself pressured to answer quickly which affected my choices as well. ",Female,0.0-40.0,0.8125,Black/African American,"{'age': '35', 'race': 'Black/African American', 'gender': 'Female', 'feedback': 'I tried to remember the combination of colors and shapes (cylinders tended to work for the machine versus squares, white more than black), but I also found myself pressured to answer quickly which affected my choices as well. ', 'ethnicity': 'Non-Hispanic', 'other_race': '', 'other_gender': ''}",84537,220119,exit_survey,44,survey-html-form,
910,lc_ls,26,0.30000000000000004,lc_ls,Non-Hispanic,Trial and error of examining which shape turned the blicket machine on,Female,0.0-40.0,0.75,Black/African American,"{'age': '26', 'race': 'Black/African American', 'gender': 'Female', 'feedback': 'Trial and error of examining which shape turned the blicket machine on', 'ethnicity': 'Non-Hispanic', 'other_race': '', 'other_gender': ''}",44048,237664,exit_survey,44,survey-html-form,
871,lc_ls,29,0.325,lc_ls,Non-Hispanic,I just started by guessing and then narrowing it down,Non-binary,0.0-40.0,0.8125,White,"{'age': '29', 'race': 'White', 'gender': 'Non-binary', 'feedback': 'I just started by guessing and then narrowing it down', 'ethnicity': 'Non-Hispanic', 'other_race': '', 'other_gender': ''}",37958,150002,exit_survey,44,survey-html-form,
878,lc_ls,25,0.25,lc_ls,Hispanic,I mostly guessed what may be on until it became clear the only item that was working as a blicket.,Questioning,0.0-40.0,0.625,White,"{'age': '25', 'race': 'White', 'gender': 'other_gender', 'feedback': 'I mostly guessed what may be on until it became clear the only item that was working as a blicket.', 'ethnicity': 'Hispanic', 'other_race': '', 'other_gender': 'Questioning'}",34033,126923,exit_survey,44,survey-html-form,
935,lc_ls,46,0.35000000000000003,lc_ls,Non-Hispanic,I used trial and error to determine the Blicket. ,Male,0.0-40.0,0.875,Black/African American,"{'age': '46', 'race': 'Black/African American', 'gender': 'Male', 'feedback': 'I used trial and error to determine the Blicket. ', 'ethnicity': 'Non-Hispanic', 'other_race': '', 'other_gender': ''}",48051,221329,exit_survey,44,survey-html-form,
854,lc_ls,52,0.2,lc_ls,Non-Hispanic,Not sure,Female,0.0-40.0,0.5,White,"{'age': '52', 'race': 'White', 'gender': 'Female', 'feedback': 'Not sure', 'ethnicity': 'Non-Hispanic', 'other_race': '', 'other_gender': ''}",17982,185854,exit_survey,44,survey-html-form,
885,lc_ls,62,0.25,lc_ls,Non-Hispanic,trial and error,Male,0.0-40.0,0.625,White,"{'age': '62', 'race': 'White', 'gender': 'Male', 'feedback': 'trial and error', 'ethnicity': 'Non-Hispanic', 'other_race': '', 'other_gender': ''}",32886,229395,exit_survey,44,survey-html-form,
950,lc_ls,71,0.30000000000000004,lc_ls,Non-Hispanic,no comment,Male,0.0-40.0,0.75,White,"{'age': '71', 'race': 'White', 'gender': 'Male', 'feedback': 'no comment', 'ethnicity': 'Non-Hispanic', 'other_race': '', 'other_gender': ''}",29271,230214,exit_survey,44,survey-html-form,
961,lc_ls,33,0.325,lc_ls,Non-Hispanic,,Male,0.0-40.0,0.8125,White,"{'age': '33', 'race': 'White', 'gender': 'Male', 'feedback': '', 'ethnicity': 'Non-Hispanic', 'other_race': '', 'other_gender': ''}",7095,94054,exit_survey,44,survey-html-form,
933,ds_lc,49,0.325,ds_lc,Non-Hispanic,I clicked on for each one at the beginning to learn the system,Female,0.0-40.0,0.8125,White,"{'age': '49', 'race': 'White', 'gender': 'Female', 'feedback': 'I clicked on for each one at the beginning to learn the system', 'ethnicity': 'Non-Hispanic', 'other_race': '', 'other_gender': ''}",31748,184114,exit_survey,44,survey-html-form,
870,ds_lc,39,0.17500000000000002,ds_lc,Non-Hispanic,the direction of the blicket initially but honestly I don't believe there was a correlation.  The higher correlation was possibly the color.,Female,0.0-40.0,0.4375,White,"{'age': '39', 'race': 'White', 'gender': 'Female', 'feedback': ""the direction of the blicket initially but honestly I don't believe there was a correlation.  The higher correlation was possibly the color."", 'ethnicity': 'Non-Hispanic', 'other_race': '', 'other_gender': ''}",64022,284143,exit_survey,62,survey-html-form,
886,ds_lc,45,0.25,ds_lc,Non-Hispanic,,Male,0.0-40.0,0.625,Asian,"{'age': '45', 'race': 'Asian', 'gender': 'Male', 'feedback': '', 'ethnicity': 'Non-Hispanic', 'other_race': '', 'other_gender': ''}",12267,154978,exit_survey,44,survey-html-form,
976,ds_lc,34,0.325,ds_lc,Non-Hispanic,I just paid attention to the shape/color of each trial and narrowed down the options logically,Male,0.0-40.0,0.8125,White,"{'age': '34', 'race': 'White', 'gender': 'Male', 'feedback': 'I just paid attention to the shape/color of each trial and narrowed down the options logically', 'ethnicity': 'Non-Hispanic', 'other_race': '', 'other_gender': ''}",37845,134035,exit_survey,44,survey-html-form,
967,ds_lc,32,0.30000000000000004,ds_lc,Non-Hispanic,No I just guessed until I figured it out,Female,0.0-40.0,0.75,White,"{'age': '32', 'race': 'White', 'gender': 'Female', 'feedback': 'No I just guessed until I figured it out', 'ethnicity': 'Non-Hispanic', 'other_race': '', 'other_gender': ''}",17275,129498,exit_survey,44,survey-html-form,
877,ds_lc,36,0.35000000000000003,ds_lc,Non-Hispanic,Finding out what turned the machine on and realizing it was the only correct option.,Male,0.0-40.0,0.875,White,"{'age': '36', 'race': 'White', 'gender': 'Male', 'feedback': 'Finding out what turned the machine on and realizing it was the only correct option.', 'ethnicity': 'Non-Hispanic', 'other_race': '', 'other_gender': ''}",44153,219935,exit_survey,44,survey-html-form,
977,ds_lc,70,0.325,ds_lc,Non-Hispanic,"When I saw that the dark cube was a blicket, I already knew that the light cube was not, but I tried the dark cylinder, thinking that te deciding factor might be ""dark."" But therhe was only one blicket.",Female,0.0-40.0,0.8125,White,"{'age': '70', 'race': 'White', 'gender': 'Female', 'feedback': 'When I saw that the dark cube was a blicket, I already knew that the light cube was not, but I tried the dark cylinder, thinking that te deciding factor might be ""dark."" But therhe was only one blicket.', 'ethnicity': 'Non-Hispanic', 'other_race': '', 'other_gender': ''}",86545,279087,exit_survey,44,survey-html-form,
853,ds_lc,48,0.2,ds_lc,Non-Hispanic,,Male,0.0-40.0,0.5,White,"{'age': '48', 'race': 'White', 'gender': 'Male', 'feedback': '', 'ethnicity': 'Non-Hispanic', 'other_race': '', 'other_gender': ''}",6568,145507,exit_survey,44,survey-html-form,
957,ds_lc,60,0.35000000000000003,ds_lc,Hispanic,I liked it!,Female,0.0-40.0,0.875,White,"{'age': '60', 'race': 'White', 'gender': 'Female', 'feedback': 'I liked it!', 'ethnicity': 'Hispanic', 'other_race': '', 'other_gender': ''}",51919,395625,exit_survey,44,survey-html-form,
894,ds_lc,39,0.325,ds_lc,Hispanic,"I responded based on the shape and color of the item on top of the potential ""Blicket.""",Female,0.0-40.0,0.8125,Multiracial,"{'age': '39', 'race': 'Multiracial', 'gender': 'Female', 'feedback': 'I responded based on the shape and color of the item on top of the potential ""Blicket.""', 'ethnicity': 'Hispanic', 'other_race': '', 'other_gender': ''}",62915,213472,exit_survey,44,survey-html-form,
914,ds_lc,67,0.325,ds_lc,Non-Hispanic,shape,Female,0.0-40.0,0.8125,White,"{'age': '67', 'race': 'White', 'gender': 'Female', 'feedback': 'shape', 'ethnicity': 'Non-Hispanic', 'other_race': '', 'other_gender': ''}",22660,194790,exit_survey,44,survey-html-form,
862,ds_lc,28,0.35000000000000003,ds_lc,Non-Hispanic,only the dark cube seemed to make the light turn on,Female,0.0-40.0,0.875,White,"{'age': '28', 'race': 'White', 'gender': 'Female', 'feedback': 'only the dark cube seemed to make the light turn on', 'ethnicity': 'Non-Hispanic', 'other_race': '', 'other_gender': ''}",25553,149090,exit_survey,44,survey-html-form,
925,ds_lc,45,0.25,ds_lc,Non-Hispanic,"I tried to memorize past responses, but admittedly did not do as well as I had hoped.",Male,0.0-40.0,0.625,White,"{'age': '45', 'race': 'White', 'gender': 'Male', 'feedback': 'I tried to memorize past responses, but admittedly did not do as well as I had hoped.', 'ethnicity': 'Non-Hispanic', 'other_race': '', 'other_gender': ''}",33655,130831,exit_survey,44,survey-html-form,
906,ds_lc,32,0.325,ds_lc,Non-Hispanic,None,Male,0.0-40.0,0.8125,White,"{'age': '32', 'race': 'White', 'gender': 'Male', 'feedback': 'None', 'ethnicity': 'Non-Hispanic', 'other_race': '', 'other_gender': ''}",11608,120309,exit_survey,44,survey-html-form,
947,ds_lc,52,0.375,ds_lc,Non-Hispanic,I just observed. ,Female,0.0-40.0,0.9375,White,"{'age': '52', 'race': 'White', 'gender': 'Female', 'feedback': 'I just observed. ', 'ethnicity': 'Non-Hispanic', 'other_race': '', 'other_gender': ''}",31295,309819,exit_survey,44,survey-html-form,
