workerid,proliferate.condition,accuracy,accuracy_bool,age,bonus,condition,correct_img,correct_key,correct_response,ethnicity,failed_audio,failed_images,failed_video,feedback,gender,hidden_img,img_selected,internal_node_id,overall_accuracy,question_order,race,response,rt,stimulus,success,time_elapsed,timeout,trial,trial_index,trial_type,view_history,error
968,lc_lc,,,,,lc_lc,,,,,[],[],[],,,,,0.0-0.0,,,,,,,True,131,False,,0,preload,,
968,lc_lc,,,,,lc_lc,,,,,[],[],[],,,,,0.0-1.0,,,,,,,True,232,False,,1,preload,,
968,lc_lc,,,,,lc_lc,,,,,,,,,,,,0.0-2.0,,,,,,,True,6985,,,2,fullscreen,,
968,lc_lc,,,,,lc_lc,,,,,,,,,,,,0.0-3.0,,,,0,9491,"<p><b>Consent Form</b></p> <div style=""text-align:left;background-color:lightblue; padding:20px; max-width:900px;""><p><b>Description:</b> Welcome! You are invited to participate in a research study in cognitive psychology. You will be asked to perform various tasks on a computer which may include: looking at images or videos, listening to sounds, reading scenarios, or playing games. You may be asked a number of different questions about making judgments and intepreting people's actions. All information collected will remain confidential. </p> <p> <b>Risks and benefits:</b> Risks involved in this study are the same as those normally associated with using a computer (e.g., mild eye/arm strain). If you have any pre- existing conditions that might make reading and completing a computer-based survey strenuous for you, you should probably elect to not participate in this study. If at any time during the study you feel unable to participate because you are experiencing strain, you may end your participation without penalty. We cannot and do not guarantee or promise that you will receive any benefits from this study. Your decision whether or not to participate in this study will not affect your employment, medical care, and/or grades in school. </p><p><b>Time involvement:</b> Your participation in this experiment will take  5 minutes. </p><p><b> Payment:</b> If recruitment materials indicate payment (e.g., Prolific or other recruitment), you will receive compensation as indicated. </p><p><b>Subject's rights:</b> If you have read this notice and have decided to participate in this project, please understand your participation is voluntary and you have the right to withdraw your consent or discontinue participation at any time without penalty or loss of benefits to which you are otherwise entitled. You have the right to refuse to answer particular questions. Your individual privacy will be maintained in all published and written data resulting from the study. </p><p><b>Contact information:</b> If you have any questions, concerns or complaints about this research study, its procedures, or risks and benefits, you should ask the Protocol Director, (Professor Tobias Gerstenberg, Phone: (650) 725-2431; Email: gerstenberg@stanford.edu). </p><p><b>Independent contact:</b> If you are not satisfied with how this study is being conducted, or if you have any concerns, complaints, or general questions about the research or your rights as a participant, please contact the Stanford Institutional Review Board (IRB) to speak to someone independent of the research team via email at irb2-manager@lists.stanford.edu, or via phone at (650) 723-2480 or toll free at 1-866-680-2906. You can also write to the Stanford IRB, Stanford University, 3000 El Camino Real, Five Palo Alto Square, 4th Floor, Palo Alto, CA 94306. </p><p>You may want to print a copy of this consent form to keep. By clicking the button below, you acknowledge that you have read the above information, that you are 18 years of age, or older and give your consent to participate in our internet-based study and consent for us to analyze the resulting data. </p> </div><p> Do you agree with the terms of the experiment as explained above? </p>",,16478,,,3,html-button-response,,
968,lc_lc,,,,,lc_lc,,,,,,,,,,,,0.0-4.0-0.0,,,,,16750,,,33229,,instructions_pt1,4,instructions,"[{'page_index': 0, 'viewing_time': 3234}, {'page_index': 1, 'viewing_time': 4697}, {'page_index': 2, 'viewing_time': 2814}, {'page_index': 3, 'viewing_time': 3941}, {'page_index': 4, 'viewing_time': 2064}]",
968,lc_lc,True,,,,lc_lc,,,j,,,,,,,,,0.0-4.0-1.0-0.0,,,,j,6800,blicket_images/red_pyramid.jpg,,40037,,comprehension_quiz,5,image-keyboard-response,,
968,lc_lc,True,,,,lc_lc,,, ,,,,,,,,,0.0-4.0-1.0-1.0,,,, ,2464,blicket_images/red_pyramid_on.jpg,,42503,,comprehension_quiz,6,image-keyboard-response,,
968,lc_lc,True,,,,lc_lc,,,f,,,,,,,,,0.0-4.0-1.0-2.0,,,,f,4774,blicket_images/purple_prism.jpg,,47278,,comprehension_quiz,7,image-keyboard-response,,
968,lc_lc,True,,,,lc_lc,,, ,,,,,,,,,0.0-4.0-1.0-3.0,,,, ,1570,blicket_images/purple_prism_off.jpg,,48849,,comprehension_quiz,8,image-keyboard-response,,
968,lc_lc,,,,,lc_lc,,,,,,,,,,,,0.0-5.0,,,,,40128,,,88978,,,9,instructions,"[{'page_index': 0, 'viewing_time': 5627}, {'page_index': 1, 'viewing_time': 1536}, {'page_index': 2, 'viewing_time': 1358}, {'page_index': 3, 'viewing_time': 1203}, {'page_index': 4, 'viewing_time': 945}, {'page_index': 5, 'viewing_time': 9607}, {'page_index': 6, 'viewing_time': 9563}, {'page_index': 7, 'viewing_time': 9251}, {'page_index': 8, 'viewing_time': 1038}]",
968,lc_lc,False,0,,,lc_lc,,f,off,,,,,,,blicket_images/dc.jpg,,0.0-6.0,,,,j,3712,blicket_images/dc.jpg,,92691,,blicket,10,image-keyboard-response,,
968,lc_lc,,,,,lc_lc,,,,,,,,,,blicket_images/dc.jpg,,0.0-7.0,,,, ,875,blicket_images/dc_off.jpg,,93567,,feedback,11,image-keyboard-response,,
968,lc_lc,True,1,,,lc_lc,,f,off,,,,,,,blicket_images/ls.jpg,,0.0-8.0,,,,f,1507,blicket_images/ls.jpg,,95074,,blicket,12,image-keyboard-response,,
968,lc_lc,,,,,lc_lc,,,,,,,,,,blicket_images/ls.jpg,,0.0-9.0,,,, ,995,blicket_images/ls_off.jpg,,96070,,feedback,13,image-keyboard-response,,
968,lc_lc,True,1,,,lc_lc,,f,off,,,,,,,blicket_images/ds.jpg,,0.0-10.0,,,,f,2347,blicket_images/ds.jpg,,98418,,blicket,14,image-keyboard-response,,
968,lc_lc,,,,,lc_lc,,,,,,,,,,blicket_images/ds.jpg,,0.0-11.0,,,, ,662,blicket_images/ds_off.jpg,,99080,,feedback,15,image-keyboard-response,,
968,lc_lc,True,1,,,lc_lc,,f,off,,,,,,,blicket_images/dc.jpg,,0.0-12.0,,,,f,1998,blicket_images/dc.jpg,,101079,,blicket,16,image-keyboard-response,,
968,lc_lc,,,,,lc_lc,,,,,,,,,,blicket_images/dc.jpg,,0.0-13.0,,,, ,581,blicket_images/dc_off.jpg,,101661,,feedback,17,image-keyboard-response,,
968,lc_lc,False,0,,,lc_lc,,f,off,,,,,,,blicket_images/ls.jpg,,0.0-14.0,,,,j,855,blicket_images/ls.jpg,,102517,,blicket,18,image-keyboard-response,,
968,lc_lc,,,,,lc_lc,,,,,,,,,,blicket_images/ls.jpg,,0.0-15.0,,,, ,856,blicket_images/ls_off.jpg,,103374,,feedback,19,image-keyboard-response,,
968,lc_lc,True,1,,,lc_lc,,j,on,,,,,,,blicket_images/lc.jpg,,0.0-16.0,,,,j,925,blicket_images/lc.jpg,,104299,,blicket,20,image-keyboard-response,,
968,lc_lc,,,,,lc_lc,,,,,,,,,,blicket_images/lc.jpg,,0.0-17.0,,,, ,632,blicket_images/lc_on.jpg,,104931,,feedback,21,image-keyboard-response,,
968,lc_lc,True,1,,,lc_lc,,f,off,,,,,,,blicket_images/dc.jpg,,0.0-18.0,,,,f,853,blicket_images/dc.jpg,,105785,,blicket,22,image-keyboard-response,,
968,lc_lc,,,,,lc_lc,,,,,,,,,,blicket_images/dc.jpg,,0.0-19.0,,,, ,615,blicket_images/dc_off.jpg,,106401,,feedback,23,image-keyboard-response,,
968,lc_lc,True,1,,,lc_lc,,f,off,,,,,,,blicket_images/ds.jpg,,0.0-20.0,,,,f,964,blicket_images/ds.jpg,,107366,,blicket,24,image-keyboard-response,,
968,lc_lc,,,,,lc_lc,,,,,,,,,,blicket_images/ds.jpg,,0.0-21.0,,,, ,575,blicket_images/ds_off.jpg,,107941,,feedback,25,image-keyboard-response,,
968,lc_lc,True,1,,,lc_lc,,j,on,,,,,,,blicket_images/lc.jpg,,0.0-22.0,,,,j,1130,blicket_images/lc.jpg,,109072,,blicket,26,image-keyboard-response,,
968,lc_lc,,,,,lc_lc,,,,,,,,,,blicket_images/lc.jpg,,0.0-23.0,,,, ,2330,blicket_images/lc_on.jpg,,111403,,feedback,27,image-keyboard-response,,
968,lc_lc,True,1,,,lc_lc,,f,off,,,,,,,blicket_images/dc.jpg,,0.0-24.0,,,,f,929,blicket_images/dc.jpg,,112337,,blicket,28,image-keyboard-response,,
968,lc_lc,,,,,lc_lc,,,,,,,,,,blicket_images/dc.jpg,,0.0-25.0,,,, ,658,blicket_images/dc_off.jpg,,112995,,feedback,29,image-keyboard-response,,
968,lc_lc,True,1,,,lc_lc,,f,off,,,,,,,blicket_images/ls.jpg,,0.0-26.0,,,,f,1076,blicket_images/ls.jpg,,114071,,blicket,30,image-keyboard-response,,
968,lc_lc,,,,,lc_lc,,,,,,,,,,blicket_images/ls.jpg,,0.0-27.0,,,, ,525,blicket_images/ls_off.jpg,,114596,,feedback,31,image-keyboard-response,,
968,lc_lc,True,1,,,lc_lc,,j,on,,,,,,,blicket_images/lc.jpg,,0.0-28.0,,,,j,1320,blicket_images/lc.jpg,,115916,,blicket,32,image-keyboard-response,,
968,lc_lc,,,,,lc_lc,,,,,,,,,,blicket_images/lc.jpg,,0.0-29.0,,,, ,462,blicket_images/lc_on.jpg,,116379,,feedback,33,image-keyboard-response,,
968,lc_lc,True,1,,,lc_lc,,f,off,,,,,,,blicket_images/ds.jpg,,0.0-30.0,,,,f,1622,blicket_images/ds.jpg,,118002,,blicket,34,image-keyboard-response,,
968,lc_lc,,,,,lc_lc,,,,,,,,,,blicket_images/ds.jpg,,0.0-31.0,,,, ,306,blicket_images/ds_off.jpg,,118308,,feedback,35,image-keyboard-response,,
968,lc_lc,True,1,,,lc_lc,,f,off,,,,,,,blicket_images/ls.jpg,,0.0-32.0,,,,f,1365,blicket_images/ls.jpg,,119677,,blicket,36,image-keyboard-response,,
968,lc_lc,,,,,lc_lc,,,,,,,,,,blicket_images/ls.jpg,,0.0-33.0,,,, ,537,blicket_images/ls_off.jpg,,120214,,feedback,37,image-keyboard-response,,
968,lc_lc,True,1,,,lc_lc,,f,off,,,,,,,blicket_images/ds.jpg,,0.0-34.0,,,,f,815,blicket_images/ds.jpg,,121030,,blicket,38,image-keyboard-response,,
968,lc_lc,,,,,lc_lc,,,,,,,,,,blicket_images/ds.jpg,,0.0-35.0,,,, ,556,blicket_images/ds_off.jpg,,121587,,feedback,39,image-keyboard-response,,
968,lc_lc,True,1,,,lc_lc,,j,on,,,,,,,blicket_images/lc.jpg,,0.0-36.0,,,,j,946,blicket_images/lc.jpg,,122534,,blicket,40,image-keyboard-response,,
968,lc_lc,True,1,,,lc_lc,blicket_images/lc.jpg,,lc,,,,,,,,blicket_images/lc.jpg,0.0-37.0,,,,lc,8331,"Which of these options shows the image from the last trial, that you just saw?",,130867,,pop_quiz,41,html-button-response,,
968,lc_lc,True,1,,,lc_lc,,,['lc'],,,,,,,,,0.0-38.0,,[0],,['lc'],14685,,,145554,,rule_question,42,survey-multi-select,,
968,lc_lc,,,,,lc_lc,,,,,,,,,,,,0.0-39.0,,,,0,9197,"<p>Thank you for participating!</p>You answered 14 out of 16 trials correctly, and will recieve a $0.35 bonus.<p>Now you will complete a short survey before finishing the experiment.</p>",,154753,,,43,html-button-response,,
968,lc_lc,,,31,0.35000000000000003,lc_lc,,,,Non-Hispanic,,,,I used the outcome of the previous guesses to determine how I should respond on the next trial.,Male,,,0.0-40.0,0.875,,White,"{'age': '31', 'race': 'White', 'gender': 'Male', 'feedback': 'I used the outcome of the previous guesses to determine how I should respond on the next trial.', 'ethnicity': 'Non-Hispanic', 'other_race': '', 'other_gender': ''}",48783,,,203537,,exit_survey,44,survey-html-form,,
892,lc_lc,,,,,lc_lc,,,,,[],[],[],,,,,0.0-0.0,,,,,,,True,300,False,,0,preload,,
892,lc_lc,,,,,lc_lc,,,,,[],[],[],,,,,0.0-1.0,,,,,,,True,567,False,,1,preload,,
892,lc_lc,,,,,lc_lc,,,,,,,,,,,,0.0-2.0,,,,,,,True,4546,,,2,fullscreen,,
892,lc_lc,,,,,lc_lc,,,,,,,,,,,,0.0-3.0,,,,0,13502,"<p><b>Consent Form</b></p> <div style=""text-align:left;background-color:lightblue; padding:20px; max-width:900px;""><p><b>Description:</b> Welcome! You are invited to participate in a research study in cognitive psychology. You will be asked to perform various tasks on a computer which may include: looking at images or videos, listening to sounds, reading scenarios, or playing games. You may be asked a number of different questions about making judgments and intepreting people's actions. All information collected will remain confidential. </p> <p> <b>Risks and benefits:</b> Risks involved in this study are the same as those normally associated with using a computer (e.g., mild eye/arm strain). If you have any pre- existing conditions that might make reading and completing a computer-based survey strenuous for you, you should probably elect to not participate in this study. If at any time during the study you feel unable to participate because you are experiencing strain, you may end your participation without penalty. We cannot and do not guarantee or promise that you will receive any benefits from this study. Your decision whether or not to participate in this study will not affect your employment, medical care, and/or grades in school. </p><p><b>Time involvement:</b> Your participation in this experiment will take  5 minutes. </p><p><b> Payment:</b> If recruitment materials indicate payment (e.g., Prolific or other recruitment), you will receive compensation as indicated. </p><p><b>Subject's rights:</b> If you have read this notice and have decided to participate in this project, please understand your participation is voluntary and you have the right to withdraw your consent or discontinue participation at any time without penalty or loss of benefits to which you are otherwise entitled. You have the right to refuse to answer particular questions. Your individual privacy will be maintained in all published and written data resulting from the study. </p><p><b>Contact information:</b> If you have any questions, concerns or complaints about this research study, its procedures, or risks and benefits, you should ask the Protocol Director, (Professor Tobias Gerstenberg, Phone: (650) 725-2431; Email: gerstenberg@stanford.edu). </p><p><b>Independent contact:</b> If you are not satisfied with how this study is being conducted, or if you have any concerns, complaints, or general questions about the research or your rights as a participant, please contact the Stanford Institutional Review Board (IRB) to speak to someone independent of the research team via email at irb2-manager@lists.stanford.edu, or via phone at (650) 723-2480 or toll free at 1-866-680-2906. You can also write to the Stanford IRB, Stanford University, 3000 El Camino Real, Five Palo Alto Square, 4th Floor, Palo Alto, CA 94306. </p><p>You may want to print a copy of this consent form to keep. By clicking the button below, you acknowledge that you have read the above information, that you are 18 years of age, or older and give your consent to participate in our internet-based study and consent for us to analyze the resulting data. </p> </div><p> Do you agree with the terms of the experiment as explained above? </p>",,18049,,,3,html-button-response,,
892,lc_lc,,,,,lc_lc,,,,,,,,,,,,0.0-4.0-0.0,,,,,34376,,,52426,,instructions_pt1,4,instructions,"[{'page_index': 0, 'viewing_time': 6207}, {'page_index': 1, 'viewing_time': 4968}, {'page_index': 2, 'viewing_time': 5896}, {'page_index': 3, 'viewing_time': 13024}, {'page_index': 4, 'viewing_time': 4280}]",
892,lc_lc,True,,,,lc_lc,,,j,,,,,,,,,0.0-4.0-1.0-0.0,,,,j,14428,blicket_images/red_pyramid.jpg,,66860,,comprehension_quiz,5,image-keyboard-response,,
892,lc_lc,True,,,,lc_lc,,, ,,,,,,,,,0.0-4.0-1.0-1.0,,,, ,2631,blicket_images/red_pyramid_on.jpg,,69492,,comprehension_quiz,6,image-keyboard-response,,
892,lc_lc,True,,,,lc_lc,,,f,,,,,,,,,0.0-4.0-1.0-2.0,,,,f,5991,blicket_images/purple_prism.jpg,,75484,,comprehension_quiz,7,image-keyboard-response,,
892,lc_lc,True,,,,lc_lc,,, ,,,,,,,,,0.0-4.0-1.0-3.0,,,, ,7096,blicket_images/purple_prism_off.jpg,,82580,,comprehension_quiz,8,image-keyboard-response,,
892,lc_lc,,,,,lc_lc,,,,,,,,,,,,0.0-5.0,,,,,77637,,,160221,,,9,instructions,"[{'page_index': 0, 'viewing_time': 10732}, {'page_index': 1, 'viewing_time': 3441}, {'page_index': 2, 'viewing_time': 2616}, {'page_index': 3, 'viewing_time': 3088}, {'page_index': 4, 'viewing_time': 2520}, {'page_index': 5, 'viewing_time': 14840}, {'page_index': 6, 'viewing_time': 14952}, {'page_index': 7, 'viewing_time': 24216}, {'page_index': 8, 'viewing_time': 1232}]",
892,lc_lc,False,0,,,lc_lc,,f,off,,,,,,,blicket_images/ls.jpg,,0.0-6.0,,,,j,8601,blicket_images/ls.jpg,,168823,,blicket,10,image-keyboard-response,,
892,lc_lc,,,,,lc_lc,,,,,,,,,,blicket_images/ls.jpg,,0.0-7.0,,,, ,13103,blicket_images/ls_off.jpg,,181927,,feedback,11,image-keyboard-response,,
892,lc_lc,False,0,,,lc_lc,,j,on,,,,,,,blicket_images/lc.jpg,,0.0-8.0,,,,f,9799,blicket_images/lc.jpg,,191727,,blicket,12,image-keyboard-response,,
892,lc_lc,,,,,lc_lc,,,,,,,,,,blicket_images/lc.jpg,,0.0-9.0,,,, ,8704,blicket_images/lc_on.jpg,,200432,,feedback,13,image-keyboard-response,,
892,lc_lc,True,1,,,lc_lc,,f,off,,,,,,,blicket_images/dc.jpg,,0.0-10.0,,,,f,21175,blicket_images/dc.jpg,,221608,,blicket,14,image-keyboard-response,,
892,lc_lc,,,,,lc_lc,,,,,,,,,,blicket_images/dc.jpg,,0.0-11.0,,,, ,5599,blicket_images/dc_off.jpg,,227208,,feedback,15,image-keyboard-response,,
892,lc_lc,True,1,,,lc_lc,,f,off,,,,,,,blicket_images/ds.jpg,,0.0-12.0,,,,f,8799,blicket_images/ds.jpg,,236009,,blicket,16,image-keyboard-response,,
892,lc_lc,,,,,lc_lc,,,,,,,,,,blicket_images/ds.jpg,,0.0-13.0,,,, ,13975,blicket_images/ds_off.jpg,,249985,,feedback,17,image-keyboard-response,,
892,lc_lc,True,1,,,lc_lc,,f,off,,,,,,,blicket_images/ls.jpg,,0.0-14.0,,,,f,5295,blicket_images/ls.jpg,,255281,,blicket,18,image-keyboard-response,,
892,lc_lc,,,,,lc_lc,,,,,,,,,,blicket_images/ls.jpg,,0.0-15.0,,,, ,2175,blicket_images/ls_off.jpg,,257457,,feedback,19,image-keyboard-response,,
892,lc_lc,True,1,,,lc_lc,,f,off,,,,,,,blicket_images/ds.jpg,,0.0-16.0,,,,f,3216,blicket_images/ds.jpg,,260674,,blicket,20,image-keyboard-response,,
892,lc_lc,,,,,lc_lc,,,,,,,,,,blicket_images/ds.jpg,,0.0-17.0,,,, ,4967,blicket_images/ds_off.jpg,,265642,,feedback,21,image-keyboard-response,,
892,lc_lc,True,1,,,lc_lc,,j,on,,,,,,,blicket_images/lc.jpg,,0.0-18.0,,,,j,2639,blicket_images/lc.jpg,,268282,,blicket,22,image-keyboard-response,,
892,lc_lc,,,,,lc_lc,,,,,,,,,,blicket_images/lc.jpg,,0.0-19.0,,,, ,1560,blicket_images/lc_on.jpg,,269842,,feedback,23,image-keyboard-response,,
892,lc_lc,True,1,,,lc_lc,,f,off,,,,,,,blicket_images/ds.jpg,,0.0-20.0,,,,f,1015,blicket_images/ds.jpg,,270857,,blicket,24,image-keyboard-response,,
892,lc_lc,,,,,lc_lc,,,,,,,,,,blicket_images/ds.jpg,,0.0-21.0,,,, ,1327,blicket_images/ds_off.jpg,,272186,,feedback,25,image-keyboard-response,,
892,lc_lc,True,1,,,lc_lc,,f,off,,,,,,,blicket_images/dc.jpg,,0.0-22.0,,,,f,1007,blicket_images/dc.jpg,,273194,,blicket,26,image-keyboard-response,,
892,lc_lc,,,,,lc_lc,,,,,,,,,,blicket_images/dc.jpg,,0.0-23.0,,,, ,1943,blicket_images/dc_off.jpg,,275138,,feedback,27,image-keyboard-response,,
892,lc_lc,True,1,,,lc_lc,,f,off,,,,,,,blicket_images/ls.jpg,,0.0-24.0,,,,f,2310,blicket_images/ls.jpg,,277450,,blicket,28,image-keyboard-response,,
892,lc_lc,,,,,lc_lc,,,,,,,,,,blicket_images/ls.jpg,,0.0-25.0,,,, ,1263,blicket_images/ls_off.jpg,,278714,,feedback,29,image-keyboard-response,,
892,lc_lc,True,1,,,lc_lc,,f,off,,,,,,,blicket_images/ds.jpg,,0.0-26.0,,,,f,3864,blicket_images/ds.jpg,,282578,,blicket,30,image-keyboard-response,,
892,lc_lc,,,,,lc_lc,,,,,,,,,,blicket_images/ds.jpg,,0.0-27.0,,,, ,1023,blicket_images/ds_off.jpg,,283602,,feedback,31,image-keyboard-response,,
892,lc_lc,True,1,,,lc_lc,,f,off,,,,,,,blicket_images/dc.jpg,,0.0-28.0,,,,f,982,blicket_images/dc.jpg,,284585,,blicket,32,image-keyboard-response,,
892,lc_lc,,,,,lc_lc,,,,,,,,,,blicket_images/dc.jpg,,0.0-29.0,,,, ,249,blicket_images/dc_off.jpg,,284834,,feedback,33,image-keyboard-response,,
892,lc_lc,True,1,,,lc_lc,,f,off,,,,,,,blicket_images/ls.jpg,,0.0-30.0,,,,f,1184,blicket_images/ls.jpg,,286018,,blicket,34,image-keyboard-response,,
892,lc_lc,,,,,lc_lc,,,,,,,,,,blicket_images/ls.jpg,,0.0-31.0,,,, ,207,blicket_images/ls_off.jpg,,286226,,feedback,35,image-keyboard-response,,
892,lc_lc,True,1,,,lc_lc,,j,on,,,,,,,blicket_images/lc.jpg,,0.0-32.0,,,,j,1360,blicket_images/lc.jpg,,287586,,blicket,36,image-keyboard-response,,
892,lc_lc,,,,,lc_lc,,,,,,,,,,blicket_images/lc.jpg,,0.0-33.0,,,, ,287,blicket_images/lc_on.jpg,,287874,,feedback,37,image-keyboard-response,,
892,lc_lc,True,1,,,lc_lc,,f,off,,,,,,,blicket_images/dc.jpg,,0.0-34.0,,,,f,1112,blicket_images/dc.jpg,,288986,,blicket,38,image-keyboard-response,,
892,lc_lc,,,,,lc_lc,,,,,,,,,,blicket_images/dc.jpg,,0.0-35.0,,,, ,263,blicket_images/dc_off.jpg,,289250,,feedback,39,image-keyboard-response,,
892,lc_lc,True,1,,,lc_lc,,j,on,,,,,,,blicket_images/lc.jpg,,0.0-36.0,,,,j,1648,blicket_images/lc.jpg,,290898,,blicket,40,image-keyboard-response,,
892,lc_lc,False,0,,,lc_lc,blicket_images/lc.jpg,,lc,,,,,,,,blicket_images/ls.jpg,0.0-37.0,,,,ls,6342,"Which of these options shows the image from the last trial, that you just saw?",,297241,,pop_quiz,41,html-button-response,,
892,lc_lc,True,1,,,lc_lc,,,['lc'],,,,,,,,,0.0-38.0,,[0],,['lc'],32805,,,330051,,rule_question,42,survey-multi-select,,
892,lc_lc,,,,,lc_lc,,,,,,,,,,,,0.0-39.0,,,,0,4998,"<p>Thank you for participating!</p>You answered 14 out of 16 trials correctly, and will recieve a $0.35 bonus.<p>Now you will complete a short survey before finishing the experiment.</p>",,335050,,,43,html-button-response,,
892,lc_lc,,,75,0.35000000000000003,lc_lc,,,,Non-Hispanic,,,,"I sifted through what I saw in the beginning, by both shape and color, and if what I picked the first time was wrong, I picked opposite the next time.  I ended up with realizing three would not work (off) and only one would, and so ""looked"" for that one color and shape, specifically.  I hope this makes sense to you!",Female,,,0.0-40.0,0.875,,White,"{'age': '75', 'race': 'White', 'gender': 'Female', 'feedback': 'I sifted through what I saw in the beginning, by both shape and color, and if what I picked the first time was wrong, I picked opposite the next time.  I ended up with realizing three would not work (off) and only one would, and so ""looked"" for that one color and shape, specifically.  I hope this makes sense to you!', 'ethnicity': 'Non-Hispanic', 'other_race': '', 'other_gender': ''}",296807,,,631868,,exit_survey,44,survey-html-form,,
884,lc_lc,,,,,lc_lc,,,,,[],[],[],,,,,0.0-0.0,,,,,,,True,256,False,,0,preload,,
884,lc_lc,,,,,lc_lc,,,,,[],[],[],,,,,0.0-1.0,,,,,,,True,379,False,,1,preload,,
884,lc_lc,,,,,lc_lc,,,,,,,,,,,,0.0-2.0,,,,,,,True,8965,,,2,fullscreen,,
884,lc_lc,,,,,lc_lc,,,,,,,,,,,,0.0-3.0,,,,0,9166,"<p><b>Consent Form</b></p> <div style=""text-align:left;background-color:lightblue; padding:20px; max-width:900px;""><p><b>Description:</b> Welcome! You are invited to participate in a research study in cognitive psychology. You will be asked to perform various tasks on a computer which may include: looking at images or videos, listening to sounds, reading scenarios, or playing games. You may be asked a number of different questions about making judgments and intepreting people's actions. All information collected will remain confidential. </p> <p> <b>Risks and benefits:</b> Risks involved in this study are the same as those normally associated with using a computer (e.g., mild eye/arm strain). If you have any pre- existing conditions that might make reading and completing a computer-based survey strenuous for you, you should probably elect to not participate in this study. If at any time during the study you feel unable to participate because you are experiencing strain, you may end your participation without penalty. We cannot and do not guarantee or promise that you will receive any benefits from this study. Your decision whether or not to participate in this study will not affect your employment, medical care, and/or grades in school. </p><p><b>Time involvement:</b> Your participation in this experiment will take  5 minutes. </p><p><b> Payment:</b> If recruitment materials indicate payment (e.g., Prolific or other recruitment), you will receive compensation as indicated. </p><p><b>Subject's rights:</b> If you have read this notice and have decided to participate in this project, please understand your participation is voluntary and you have the right to withdraw your consent or discontinue participation at any time without penalty or loss of benefits to which you are otherwise entitled. You have the right to refuse to answer particular questions. Your individual privacy will be maintained in all published and written data resulting from the study. </p><p><b>Contact information:</b> If you have any questions, concerns or complaints about this research study, its procedures, or risks and benefits, you should ask the Protocol Director, (Professor Tobias Gerstenberg, Phone: (650) 725-2431; Email: gerstenberg@stanford.edu). </p><p><b>Independent contact:</b> If you are not satisfied with how this study is being conducted, or if you have any concerns, complaints, or general questions about the research or your rights as a participant, please contact the Stanford Institutional Review Board (IRB) to speak to someone independent of the research team via email at irb2-manager@lists.stanford.edu, or via phone at (650) 723-2480 or toll free at 1-866-680-2906. You can also write to the Stanford IRB, Stanford University, 3000 El Camino Real, Five Palo Alto Square, 4th Floor, Palo Alto, CA 94306. </p><p>You may want to print a copy of this consent form to keep. By clicking the button below, you acknowledge that you have read the above information, that you are 18 years of age, or older and give your consent to participate in our internet-based study and consent for us to analyze the resulting data. </p> </div><p> Do you agree with the terms of the experiment as explained above? </p>",,18132,,,3,html-button-response,,
884,lc_lc,,,,,lc_lc,,,,,,,,,,,,0.0-4.0-0.0,,,,,23768,,,41902,,instructions_pt1,4,instructions,"[{'page_index': 0, 'viewing_time': 4815}, {'page_index': 1, 'viewing_time': 3904}, {'page_index': 2, 'viewing_time': 2656}, {'page_index': 3, 'viewing_time': 8688}, {'page_index': 4, 'viewing_time': 3704}]",
884,lc_lc,False,,,,lc_lc,,,j,,,,,,,,,0.0-4.0-1.0-0.0,,,,f,7154,blicket_images/red_pyramid.jpg,,49064,,comprehension_quiz,5,image-keyboard-response,,
884,lc_lc,True,,,,lc_lc,,, ,,,,,,,,,0.0-4.0-1.0-1.0,,,, ,1828,blicket_images/red_pyramid_on.jpg,,50894,,comprehension_quiz,6,image-keyboard-response,,
884,lc_lc,True,,,,lc_lc,,,f,,,,,,,,,0.0-4.0-1.0-2.0,,,,f,8286,blicket_images/purple_prism.jpg,,59181,,comprehension_quiz,7,image-keyboard-response,,
884,lc_lc,True,,,,lc_lc,,, ,,,,,,,,,0.0-4.0-1.0-3.0,,,, ,1999,blicket_images/purple_prism_off.jpg,,61181,,comprehension_quiz,8,image-keyboard-response,,
884,lc_lc,False,,,,lc_lc,,,,,,,,,,,,0.0-4.0-2.0-0.0,,,,0,4207,<p> Oops! You have answered one or more questions incorrectly.</p><p> Please Review the instructions again before continuing with the experiment </p>,,65389,,fail_message,9,html-button-response,,
884,lc_lc,,,,,lc_lc,,,,,,,,,,,,0.0-4.1-0.1,,,,,13855,,,79245,,instructions_pt1,10,instructions,"[{'page_index': 0, 'viewing_time': 1975}, {'page_index': 1, 'viewing_time': 1288}, {'page_index': 2, 'viewing_time': 1432}, {'page_index': 3, 'viewing_time': 5448}, {'page_index': 4, 'viewing_time': 3712}]",
884,lc_lc,True,,,,lc_lc,,,j,,,,,,,,,0.0-4.1-1.1-0.1,,,,j,4440,blicket_images/red_pyramid.jpg,,83686,,comprehension_quiz,11,image-keyboard-response,,
884,lc_lc,True,,,,lc_lc,,, ,,,,,,,,,0.0-4.1-1.1-1.1,,,, ,1526,blicket_images/red_pyramid_on.jpg,,85213,,comprehension_quiz,12,image-keyboard-response,,
884,lc_lc,True,,,,lc_lc,,,f,,,,,,,,,0.0-4.1-1.1-2.1,,,,f,2311,blicket_images/purple_prism.jpg,,87526,,comprehension_quiz,13,image-keyboard-response,,
884,lc_lc,True,,,,lc_lc,,, ,,,,,,,,,0.0-4.1-1.1-3.1,,,, ,1006,blicket_images/purple_prism_off.jpg,,88533,,comprehension_quiz,14,image-keyboard-response,,
884,lc_lc,,,,,lc_lc,,,,,,,,,,,,0.0-5.0,,,,,42233,,,130767,,,15,instructions,"[{'page_index': 0, 'viewing_time': 4664}, {'page_index': 1, 'viewing_time': 2448}, {'page_index': 2, 'viewing_time': 640}, {'page_index': 3, 'viewing_time': 1384}, {'page_index': 4, 'viewing_time': 568}, {'page_index': 5, 'viewing_time': 9456}, {'page_index': 6, 'viewing_time': 12512}, {'page_index': 7, 'viewing_time': 9168}, {'page_index': 8, 'viewing_time': 1393}]",
884,lc_lc,True,1,,,lc_lc,,j,on,,,,,,,blicket_images/lc.jpg,,0.0-6.0,,,,j,7379,blicket_images/lc.jpg,,138150,,blicket,16,image-keyboard-response,,
884,lc_lc,,,,,lc_lc,,,,,,,,,,blicket_images/lc.jpg,,0.0-7.0,,,, ,1415,blicket_images/lc_on.jpg,,139566,,feedback,17,image-keyboard-response,,
884,lc_lc,True,1,,,lc_lc,,f,off,,,,,,,blicket_images/ds.jpg,,0.0-8.0,,,,f,5319,blicket_images/ds.jpg,,144887,,blicket,18,image-keyboard-response,,
884,lc_lc,,,,,lc_lc,,,,,,,,,,blicket_images/ds.jpg,,0.0-9.0,,,, ,1294,blicket_images/ds_off.jpg,,146183,,feedback,19,image-keyboard-response,,
884,lc_lc,True,1,,,lc_lc,,f,off,,,,,,,blicket_images/dc.jpg,,0.0-10.0,,,,f,3367,blicket_images/dc.jpg,,149551,,blicket,20,image-keyboard-response,,
884,lc_lc,,,,,lc_lc,,,,,,,,,,blicket_images/dc.jpg,,0.0-11.0,,,, ,975,blicket_images/dc_off.jpg,,150527,,feedback,21,image-keyboard-response,,
884,lc_lc,False,0,,,lc_lc,,f,off,,,,,,,blicket_images/ls.jpg,,0.0-12.0,,,,j,1566,blicket_images/ls.jpg,,152094,,blicket,22,image-keyboard-response,,
884,lc_lc,,,,,lc_lc,,,,,,,,,,blicket_images/ls.jpg,,0.0-13.0,,,, ,967,blicket_images/ls_off.jpg,,153063,,feedback,23,image-keyboard-response,,
884,lc_lc,True,1,,,lc_lc,,f,off,,,,,,,blicket_images/ds.jpg,,0.0-14.0,,,,f,3599,blicket_images/ds.jpg,,156663,,blicket,24,image-keyboard-response,,
884,lc_lc,,,,,lc_lc,,,,,,,,,,blicket_images/ds.jpg,,0.0-15.0,,,, ,774,blicket_images/ds_off.jpg,,157438,,feedback,25,image-keyboard-response,,
884,lc_lc,True,1,,,lc_lc,,f,off,,,,,,,blicket_images/dc.jpg,,0.0-16.0,,,,f,1399,blicket_images/dc.jpg,,158840,,blicket,26,image-keyboard-response,,
884,lc_lc,,,,,lc_lc,,,,,,,,,,blicket_images/dc.jpg,,0.0-17.0,,,, ,574,blicket_images/dc_off.jpg,,159416,,feedback,27,image-keyboard-response,,
884,lc_lc,True,1,,,lc_lc,,j,on,,,,,,,blicket_images/lc.jpg,,0.0-18.0,,,,j,5967,blicket_images/lc.jpg,,165384,,blicket,28,image-keyboard-response,,
884,lc_lc,,,,,lc_lc,,,,,,,,,,blicket_images/lc.jpg,,0.0-19.0,,,, ,1271,blicket_images/lc_on.jpg,,166656,,feedback,29,image-keyboard-response,,
884,lc_lc,True,1,,,lc_lc,,f,off,,,,,,,blicket_images/ls.jpg,,0.0-20.0,,,,f,1439,blicket_images/ls.jpg,,168096,,blicket,30,image-keyboard-response,,
884,lc_lc,,,,,lc_lc,,,,,,,,,,blicket_images/ls.jpg,,0.0-21.0,,,, ,582,blicket_images/ls_off.jpg,,168680,,feedback,31,image-keyboard-response,,
884,lc_lc,True,1,,,lc_lc,,f,off,,,,,,,blicket_images/dc.jpg,,0.0-22.0,,,,f,2527,blicket_images/dc.jpg,,171207,,blicket,32,image-keyboard-response,,
884,lc_lc,,,,,lc_lc,,,,,,,,,,blicket_images/dc.jpg,,0.0-23.0,,,, ,631,blicket_images/dc_off.jpg,,171839,,feedback,33,image-keyboard-response,,
884,lc_lc,True,1,,,lc_lc,,f,off,,,,,,,blicket_images/ls.jpg,,0.0-24.0,,,,f,3482,blicket_images/ls.jpg,,175328,,blicket,34,image-keyboard-response,,
884,lc_lc,,,,,lc_lc,,,,,,,,,,blicket_images/ls.jpg,,0.0-25.0,,,, ,535,blicket_images/ls_off.jpg,,175864,,feedback,35,image-keyboard-response,,
884,lc_lc,True,1,,,lc_lc,,j,on,,,,,,,blicket_images/lc.jpg,,0.0-26.0,,,,j,1031,blicket_images/lc.jpg,,176896,,blicket,36,image-keyboard-response,,
884,lc_lc,,,,,lc_lc,,,,,,,,,,blicket_images/lc.jpg,,0.0-27.0,,,, ,671,blicket_images/lc_on.jpg,,177568,,feedback,37,image-keyboard-response,,
884,lc_lc,True,1,,,lc_lc,,f,off,,,,,,,blicket_images/dc.jpg,,0.0-28.0,,,,f,1583,blicket_images/dc.jpg,,179152,,blicket,38,image-keyboard-response,,
884,lc_lc,,,,,lc_lc,,,,,,,,,,blicket_images/dc.jpg,,0.0-29.0,,,, ,599,blicket_images/dc_off.jpg,,179752,,feedback,39,image-keyboard-response,,
884,lc_lc,True,1,,,lc_lc,,f,off,,,,,,,blicket_images/ls.jpg,,0.0-30.0,,,,f,3518,blicket_images/ls.jpg,,183272,,blicket,40,image-keyboard-response,,
884,lc_lc,,,,,lc_lc,,,,,,,,,,blicket_images/ls.jpg,,0.0-31.0,,,, ,623,blicket_images/ls_off.jpg,,183896,,feedback,41,image-keyboard-response,,
884,lc_lc,True,1,,,lc_lc,,f,off,,,,,,,blicket_images/ds.jpg,,0.0-32.0,,,,f,967,blicket_images/ds.jpg,,184864,,blicket,42,image-keyboard-response,,
884,lc_lc,,,,,lc_lc,,,,,,,,,,blicket_images/ds.jpg,,0.0-33.0,,,, ,383,blicket_images/ds_off.jpg,,185248,,feedback,43,image-keyboard-response,,
884,lc_lc,True,1,,,lc_lc,,f,off,,,,,,,blicket_images/ls.jpg,,0.0-34.0,,,,f,1167,blicket_images/ls.jpg,,186416,,blicket,44,image-keyboard-response,,
884,lc_lc,,,,,lc_lc,,,,,,,,,,blicket_images/ls.jpg,,0.0-35.0,,,, ,386,blicket_images/ls_off.jpg,,186808,,feedback,45,image-keyboard-response,,
884,lc_lc,True,1,,,lc_lc,,j,on,,,,,,,blicket_images/lc.jpg,,0.0-36.0,,,,j,3598,blicket_images/lc.jpg,,190407,,blicket,46,image-keyboard-response,,
884,lc_lc,False,0,,,lc_lc,blicket_images/lc.jpg,,lc,,,,,,,,blicket_images/ls.jpg,0.0-37.0,,,,ls,12079,"Which of these options shows the image from the last trial, that you just saw?",,202487,,pop_quiz,47,html-button-response,,
884,lc_lc,True,1,,,lc_lc,,,['lc'],,,,,,,,,0.0-38.0,,[0],,['lc'],10077,,,212568,,rule_question,48,survey-multi-select,,
884,lc_lc,,,,,lc_lc,,,,,,,,,,,,0.0-39.0,,,,0,3606,"<p>Thank you for participating!</p>You answered 15 out of 16 trials correctly, and will recieve a $0.38 bonus.<p>Now you will complete a short survey before finishing the experiment.</p>",,216176,,,49,html-button-response,,
884,lc_lc,,,41,0.375,lc_lc,,,,Non-Hispanic,,,,,Female,,,0.0-40.0,0.9375,,White,"{'age': '41', 'race': 'White', 'gender': 'Female', 'feedback': '', 'ethnicity': 'Non-Hispanic', 'other_race': '', 'other_gender': ''}",12887,,,229065,,exit_survey,50,survey-html-form,,
876,lc_lc,,,,,lc_lc,,,,,[],[],[],,,,,0.0-0.0,,,,,,,True,235,False,,0,preload,,
876,lc_lc,,,,,lc_lc,,,,,[],[],[],,,,,0.0-1.0,,,,,,,True,490,False,,1,preload,,
876,lc_lc,,,,,lc_lc,,,,,,,,,,,,0.0-2.0,,,,,,,True,2669,,,2,fullscreen,,
876,lc_lc,,,,,lc_lc,,,,,,,,,,,,0.0-3.0,,,,0,4054,"<p><b>Consent Form</b></p> <div style=""text-align:left;background-color:lightblue; padding:20px; max-width:900px;""><p><b>Description:</b> Welcome! You are invited to participate in a research study in cognitive psychology. You will be asked to perform various tasks on a computer which may include: looking at images or videos, listening to sounds, reading scenarios, or playing games. You may be asked a number of different questions about making judgments and intepreting people's actions. All information collected will remain confidential. </p> <p> <b>Risks and benefits:</b> Risks involved in this study are the same as those normally associated with using a computer (e.g., mild eye/arm strain). If you have any pre- existing conditions that might make reading and completing a computer-based survey strenuous for you, you should probably elect to not participate in this study. If at any time during the study you feel unable to participate because you are experiencing strain, you may end your participation without penalty. We cannot and do not guarantee or promise that you will receive any benefits from this study. Your decision whether or not to participate in this study will not affect your employment, medical care, and/or grades in school. </p><p><b>Time involvement:</b> Your participation in this experiment will take  5 minutes. </p><p><b> Payment:</b> If recruitment materials indicate payment (e.g., Prolific or other recruitment), you will receive compensation as indicated. </p><p><b>Subject's rights:</b> If you have read this notice and have decided to participate in this project, please understand your participation is voluntary and you have the right to withdraw your consent or discontinue participation at any time without penalty or loss of benefits to which you are otherwise entitled. You have the right to refuse to answer particular questions. Your individual privacy will be maintained in all published and written data resulting from the study. </p><p><b>Contact information:</b> If you have any questions, concerns or complaints about this research study, its procedures, or risks and benefits, you should ask the Protocol Director, (Professor Tobias Gerstenberg, Phone: (650) 725-2431; Email: gerstenberg@stanford.edu). </p><p><b>Independent contact:</b> If you are not satisfied with how this study is being conducted, or if you have any concerns, complaints, or general questions about the research or your rights as a participant, please contact the Stanford Institutional Review Board (IRB) to speak to someone independent of the research team via email at irb2-manager@lists.stanford.edu, or via phone at (650) 723-2480 or toll free at 1-866-680-2906. You can also write to the Stanford IRB, Stanford University, 3000 El Camino Real, Five Palo Alto Square, 4th Floor, Palo Alto, CA 94306. </p><p>You may want to print a copy of this consent form to keep. By clicking the button below, you acknowledge that you have read the above information, that you are 18 years of age, or older and give your consent to participate in our internet-based study and consent for us to analyze the resulting data. </p> </div><p> Do you agree with the terms of the experiment as explained above? </p>",,6724,,,3,html-button-response,,
876,lc_lc,,,,,lc_lc,,,,,,,,,,,,0.0-4.0-0.0,,,,,10487,,,17213,,instructions_pt1,4,instructions,"[{'page_index': 0, 'viewing_time': 1207}, {'page_index': 1, 'viewing_time': 1847}, {'page_index': 2, 'viewing_time': 1657}, {'page_index': 3, 'viewing_time': 2328}, {'page_index': 4, 'viewing_time': 3448}]",
876,lc_lc,True,,,,lc_lc,,,j,,,,,,,,,0.0-4.0-1.0-0.0,,,,j,8020,blicket_images/red_pyramid.jpg,,25238,,comprehension_quiz,5,image-keyboard-response,,
876,lc_lc,True,,,,lc_lc,,, ,,,,,,,,,0.0-4.0-1.0-1.0,,,, ,920,blicket_images/red_pyramid_on.jpg,,26161,,comprehension_quiz,6,image-keyboard-response,,
876,lc_lc,True,,,,lc_lc,,,f,,,,,,,,,0.0-4.0-1.0-2.0,,,,f,4962,blicket_images/purple_prism.jpg,,31125,,comprehension_quiz,7,image-keyboard-response,,
876,lc_lc,True,,,,lc_lc,,, ,,,,,,,,,0.0-4.0-1.0-3.0,,,, ,852,blicket_images/purple_prism_off.jpg,,31980,,comprehension_quiz,8,image-keyboard-response,,
876,lc_lc,,,,,lc_lc,,,,,,,,,,,,0.0-5.0,,,,,23690,,,55670,,,9,instructions,"[{'page_index': 0, 'viewing_time': 3865}, {'page_index': 1, 'viewing_time': 1201}, {'page_index': 2, 'viewing_time': 551}, {'page_index': 3, 'viewing_time': 1160}, {'page_index': 4, 'viewing_time': 640}, {'page_index': 5, 'viewing_time': 6440}, {'page_index': 6, 'viewing_time': 4665}, {'page_index': 7, 'viewing_time': 4384}, {'page_index': 8, 'viewing_time': 784}]",
876,lc_lc,True,1,,,lc_lc,,j,on,,,,,,,blicket_images/lc.jpg,,0.0-6.0,,,,j,2318,blicket_images/lc.jpg,,57991,,blicket,10,image-keyboard-response,,
876,lc_lc,,,,,lc_lc,,,,,,,,,,blicket_images/lc.jpg,,0.0-7.0,,,, ,893,blicket_images/lc_on.jpg,,58886,,feedback,11,image-keyboard-response,,
876,lc_lc,True,1,,,lc_lc,,f,off,,,,,,,blicket_images/dc.jpg,,0.0-8.0,,,,f,927,blicket_images/dc.jpg,,59816,,blicket,12,image-keyboard-response,,
876,lc_lc,,,,,lc_lc,,,,,,,,,,blicket_images/dc.jpg,,0.0-9.0,,,, ,764,blicket_images/dc_off.jpg,,60583,,feedback,13,image-keyboard-response,,
876,lc_lc,False,0,,,lc_lc,,f,off,,,,,,,blicket_images/ls.jpg,,0.0-10.0,,,,j,921,blicket_images/ls.jpg,,61506,,blicket,14,image-keyboard-response,,
876,lc_lc,,,,,lc_lc,,,,,,,,,,blicket_images/ls.jpg,,0.0-11.0,,,, ,965,blicket_images/ls_off.jpg,,62474,,feedback,15,image-keyboard-response,,
876,lc_lc,False,0,,,lc_lc,,f,off,,,,,,,blicket_images/ds.jpg,,0.0-12.0,,,,j,909,blicket_images/ds.jpg,,63384,,blicket,16,image-keyboard-response,,
876,lc_lc,,,,,lc_lc,,,,,,,,,,blicket_images/ds.jpg,,0.0-13.0,,,, ,907,blicket_images/ds_off.jpg,,64295,,feedback,17,image-keyboard-response,,
876,lc_lc,True,1,,,lc_lc,,f,off,,,,,,,blicket_images/ls.jpg,,0.0-14.0,,,,f,1304,blicket_images/ls.jpg,,65599,,blicket,18,image-keyboard-response,,
876,lc_lc,,,,,lc_lc,,,,,,,,,,blicket_images/ls.jpg,,0.0-15.0,,,, ,520,blicket_images/ls_off.jpg,,66119,,feedback,19,image-keyboard-response,,
876,lc_lc,True,1,,,lc_lc,,f,off,,,,,,,blicket_images/ds.jpg,,0.0-16.0,,,,f,824,blicket_images/ds.jpg,,66945,,blicket,20,image-keyboard-response,,
876,lc_lc,,,,,lc_lc,,,,,,,,,,blicket_images/ds.jpg,,0.0-17.0,,,, ,366,blicket_images/ds_off.jpg,,67312,,feedback,21,image-keyboard-response,,
876,lc_lc,True,1,,,lc_lc,,f,off,,,,,,,blicket_images/dc.jpg,,0.0-18.0,,,,f,819,blicket_images/dc.jpg,,68131,,blicket,22,image-keyboard-response,,
876,lc_lc,,,,,lc_lc,,,,,,,,,,blicket_images/dc.jpg,,0.0-19.0,,,, ,239,blicket_images/dc_off.jpg,,68370,,feedback,23,image-keyboard-response,,
876,lc_lc,True,1,,,lc_lc,,f,off,,,,,,,blicket_images/ls.jpg,,0.0-20.0,,,,f,775,blicket_images/ls.jpg,,69145,,blicket,24,image-keyboard-response,,
876,lc_lc,,,,,lc_lc,,,,,,,,,,blicket_images/ls.jpg,,0.0-21.0,,,, ,222,blicket_images/ls_off.jpg,,69369,,feedback,25,image-keyboard-response,,
876,lc_lc,True,1,,,lc_lc,,j,on,,,,,,,blicket_images/lc.jpg,,0.0-22.0,,,,j,753,blicket_images/lc.jpg,,70121,,blicket,26,image-keyboard-response,,
876,lc_lc,,,,,lc_lc,,,,,,,,,,blicket_images/lc.jpg,,0.0-23.0,,,, ,230,blicket_images/lc_on.jpg,,70353,,feedback,27,image-keyboard-response,,
876,lc_lc,True,1,,,lc_lc,,f,off,,,,,,,blicket_images/ds.jpg,,0.0-24.0,,,,f,728,blicket_images/ds.jpg,,71080,,blicket,28,image-keyboard-response,,
876,lc_lc,,,,,lc_lc,,,,,,,,,,blicket_images/ds.jpg,,0.0-25.0,,,, ,214,blicket_images/ds_off.jpg,,71296,,feedback,29,image-keyboard-response,,
876,lc_lc,True,1,,,lc_lc,,j,on,,,,,,,blicket_images/lc.jpg,,0.0-26.0,,,,j,952,blicket_images/lc.jpg,,72248,,blicket,30,image-keyboard-response,,
876,lc_lc,,,,,lc_lc,,,,,,,,,,blicket_images/lc.jpg,,0.0-27.0,,,, ,250,blicket_images/lc_on.jpg,,72499,,feedback,31,image-keyboard-response,,
876,lc_lc,True,1,,,lc_lc,,f,off,,,,,,,blicket_images/ds.jpg,,0.0-28.0,,,,f,558,blicket_images/ds.jpg,,73058,,blicket,32,image-keyboard-response,,
876,lc_lc,,,,,lc_lc,,,,,,,,,,blicket_images/ds.jpg,,0.0-29.0,,,, ,176,blicket_images/ds_off.jpg,,73235,,feedback,33,image-keyboard-response,,
876,lc_lc,True,1,,,lc_lc,,j,on,,,,,,,blicket_images/lc.jpg,,0.0-30.0,,,,j,658,blicket_images/lc.jpg,,73894,,blicket,34,image-keyboard-response,,
876,lc_lc,,,,,lc_lc,,,,,,,,,,blicket_images/lc.jpg,,0.0-31.0,,,, ,211,blicket_images/lc_on.jpg,,74106,,feedback,35,image-keyboard-response,,
876,lc_lc,True,1,,,lc_lc,,f,off,,,,,,,blicket_images/dc.jpg,,0.0-32.0,,,,f,875,blicket_images/dc.jpg,,74982,,blicket,36,image-keyboard-response,,
876,lc_lc,,,,,lc_lc,,,,,,,,,,blicket_images/dc.jpg,,0.0-33.0,,,, ,198,blicket_images/dc_off.jpg,,75179,,feedback,37,image-keyboard-response,,
876,lc_lc,True,1,,,lc_lc,,f,off,,,,,,,blicket_images/ds.jpg,,0.0-34.0,,,,f,601,blicket_images/ds.jpg,,75780,,blicket,38,image-keyboard-response,,
876,lc_lc,,,,,lc_lc,,,,,,,,,,blicket_images/ds.jpg,,0.0-35.0,,,, ,226,blicket_images/ds_off.jpg,,76006,,feedback,39,image-keyboard-response,,
876,lc_lc,True,1,,,lc_lc,,j,on,,,,,,,blicket_images/lc.jpg,,0.0-36.0,,,,j,585,blicket_images/lc.jpg,,76592,,blicket,40,image-keyboard-response,,
876,lc_lc,True,1,,,lc_lc,blicket_images/lc.jpg,,lc,,,,,,,,blicket_images/lc.jpg,0.0-37.0,,,,lc,6902,"Which of these options shows the image from the last trial, that you just saw?",,83496,,pop_quiz,41,html-button-response,,
876,lc_lc,True,1,,,lc_lc,,,['lc'],,,,,,,,,0.0-38.0,,[0],,['lc'],4269,,,87768,,rule_question,42,survey-multi-select,,
876,lc_lc,,,,,lc_lc,,,,,,,,,,,,0.0-39.0,,,,0,1895,"<p>Thank you for participating!</p>You answered 14 out of 16 trials correctly, and will recieve a $0.35 bonus.<p>Now you will complete a short survey before finishing the experiment.</p>",,89664,,,43,html-button-response,,
876,lc_lc,,,31,0.35000000000000003,lc_lc,,,,Non-Hispanic,,,,"observation, no",Female,,,0.0-40.0,0.875,,White,"{'age': '31', 'race': 'White', 'gender': 'Female', 'feedback': 'observation, no', 'ethnicity': 'Non-Hispanic', 'other_race': '', 'other_gender': ''}",20527,,,110194,,exit_survey,44,survey-html-form,,
916,lc_lc,,,,,lc_lc,,,,,[],[],[],,,,,0.0-0.0,,,,,,,True,124,False,,0,preload,,
916,lc_lc,,,,,lc_lc,,,,,[],[],[],,,,,0.0-1.0,,,,,,,True,232,False,,1,preload,,
916,lc_lc,,,,,lc_lc,,,,,,,,,,,,0.0-2.0,,,,,,,True,4451,,,2,fullscreen,,
916,lc_lc,,,,,lc_lc,,,,,,,,,,,,0.0-3.0,,,,0,4821,"<p><b>Consent Form</b></p> <div style=""text-align:left;background-color:lightblue; padding:20px; max-width:900px;""><p><b>Description:</b> Welcome! You are invited to participate in a research study in cognitive psychology. You will be asked to perform various tasks on a computer which may include: looking at images or videos, listening to sounds, reading scenarios, or playing games. You may be asked a number of different questions about making judgments and intepreting people's actions. All information collected will remain confidential. </p> <p> <b>Risks and benefits:</b> Risks involved in this study are the same as those normally associated with using a computer (e.g., mild eye/arm strain). If you have any pre- existing conditions that might make reading and completing a computer-based survey strenuous for you, you should probably elect to not participate in this study. If at any time during the study you feel unable to participate because you are experiencing strain, you may end your participation without penalty. We cannot and do not guarantee or promise that you will receive any benefits from this study. Your decision whether or not to participate in this study will not affect your employment, medical care, and/or grades in school. </p><p><b>Time involvement:</b> Your participation in this experiment will take  5 minutes. </p><p><b> Payment:</b> If recruitment materials indicate payment (e.g., Prolific or other recruitment), you will receive compensation as indicated. </p><p><b>Subject's rights:</b> If you have read this notice and have decided to participate in this project, please understand your participation is voluntary and you have the right to withdraw your consent or discontinue participation at any time without penalty or loss of benefits to which you are otherwise entitled. You have the right to refuse to answer particular questions. Your individual privacy will be maintained in all published and written data resulting from the study. </p><p><b>Contact information:</b> If you have any questions, concerns or complaints about this research study, its procedures, or risks and benefits, you should ask the Protocol Director, (Professor Tobias Gerstenberg, Phone: (650) 725-2431; Email: gerstenberg@stanford.edu). </p><p><b>Independent contact:</b> If you are not satisfied with how this study is being conducted, or if you have any concerns, complaints, or general questions about the research or your rights as a participant, please contact the Stanford Institutional Review Board (IRB) to speak to someone independent of the research team via email at irb2-manager@lists.stanford.edu, or via phone at (650) 723-2480 or toll free at 1-866-680-2906. You can also write to the Stanford IRB, Stanford University, 3000 El Camino Real, Five Palo Alto Square, 4th Floor, Palo Alto, CA 94306. </p><p>You may want to print a copy of this consent form to keep. By clicking the button below, you acknowledge that you have read the above information, that you are 18 years of age, or older and give your consent to participate in our internet-based study and consent for us to analyze the resulting data. </p> </div><p> Do you agree with the terms of the experiment as explained above? </p>",,9276,,,3,html-button-response,,
916,lc_lc,,,,,lc_lc,,,,,,,,,,,,0.0-4.0-0.0,,,,,50213,,,59491,,instructions_pt1,4,instructions,"[{'page_index': 0, 'viewing_time': 2899}, {'page_index': 1, 'viewing_time': 16671}, {'page_index': 2, 'viewing_time': 5338}, {'page_index': 3, 'viewing_time': 21801}, {'page_index': 4, 'viewing_time': 3504}]",
916,lc_lc,True,,,,lc_lc,,,j,,,,,,,,,0.0-4.0-1.0-0.0,,,,j,6395,blicket_images/red_pyramid.jpg,,65898,,comprehension_quiz,5,image-keyboard-response,,
916,lc_lc,True,,,,lc_lc,,, ,,,,,,,,,0.0-4.0-1.0-1.0,,,, ,1986,blicket_images/red_pyramid_on.jpg,,67887,,comprehension_quiz,6,image-keyboard-response,,
916,lc_lc,True,,,,lc_lc,,,f,,,,,,,,,0.0-4.0-1.0-2.0,,,,f,3499,blicket_images/purple_prism.jpg,,71388,,comprehension_quiz,7,image-keyboard-response,,
916,lc_lc,True,,,,lc_lc,,, ,,,,,,,,,0.0-4.0-1.0-3.0,,,, ,1497,blicket_images/purple_prism_off.jpg,,72888,,comprehension_quiz,8,image-keyboard-response,,
916,lc_lc,,,,,lc_lc,,,,,,,,,,,,0.0-5.0,,,,,43291,,,116182,,,9,instructions,"[{'page_index': 0, 'viewing_time': 4983}, {'page_index': 1, 'viewing_time': 2174}, {'page_index': 2, 'viewing_time': 1226}, {'page_index': 3, 'viewing_time': 1592}, {'page_index': 4, 'viewing_time': 1347}, {'page_index': 5, 'viewing_time': 8002}, {'page_index': 6, 'viewing_time': 13547}, {'page_index': 7, 'viewing_time': 8664}, {'page_index': 8, 'viewing_time': 1756}]",
916,lc_lc,True,1,,,lc_lc,,f,off,,,,,,,blicket_images/ds.jpg,,0.0-6.0,,,,f,4981,blicket_images/ds.jpg,,121165,,blicket,10,image-keyboard-response,,
916,lc_lc,,,,,lc_lc,,,,,,,,,,blicket_images/ds.jpg,,0.0-7.0,,,, ,2289,blicket_images/ds_off.jpg,,123459,,feedback,11,image-keyboard-response,,
916,lc_lc,False,0,,,lc_lc,,f,off,,,,,,,blicket_images/ls.jpg,,0.0-8.0,,,,j,6899,blicket_images/ls.jpg,,130360,,blicket,12,image-keyboard-response,,
916,lc_lc,,,,,lc_lc,,,,,,,,,,blicket_images/ls.jpg,,0.0-9.0,,,, ,1499,blicket_images/ls_off.jpg,,131861,,feedback,13,image-keyboard-response,,
916,lc_lc,True,1,,,lc_lc,,f,off,,,,,,,blicket_images/ds.jpg,,0.0-10.0,,,,f,4854,blicket_images/ds.jpg,,136718,,blicket,14,image-keyboard-response,,
916,lc_lc,,,,,lc_lc,,,,,,,,,,blicket_images/ds.jpg,,0.0-11.0,,,, ,1314,blicket_images/ds_off.jpg,,138036,,feedback,15,image-keyboard-response,,
916,lc_lc,False,0,,,lc_lc,,j,on,,,,,,,blicket_images/lc.jpg,,0.0-12.0,,,,f,2476,blicket_images/lc.jpg,,140514,,blicket,16,image-keyboard-response,,
916,lc_lc,,,,,lc_lc,,,,,,,,,,blicket_images/lc.jpg,,0.0-13.0,,,, ,1252,blicket_images/lc_on.jpg,,141768,,feedback,17,image-keyboard-response,,
916,lc_lc,False,0,,,lc_lc,,f,off,,,,,,,blicket_images/dc.jpg,,0.0-14.0,,,,j,4848,blicket_images/dc.jpg,,146613,,blicket,18,image-keyboard-response,,
916,lc_lc,,,,,lc_lc,,,,,,,,,,blicket_images/dc.jpg,,0.0-15.0,,,, ,780,blicket_images/dc_off.jpg,,147395,,feedback,19,image-keyboard-response,,
916,lc_lc,True,1,,,lc_lc,,j,on,,,,,,,blicket_images/lc.jpg,,0.0-16.0,,,,j,2152,blicket_images/lc.jpg,,149550,,blicket,20,image-keyboard-response,,
916,lc_lc,,,,,lc_lc,,,,,,,,,,blicket_images/lc.jpg,,0.0-17.0,,,, ,882,blicket_images/lc_on.jpg,,150433,,feedback,21,image-keyboard-response,,
916,lc_lc,True,1,,,lc_lc,,f,off,,,,,,,blicket_images/ls.jpg,,0.0-18.0,,,,f,2703,blicket_images/ls.jpg,,153138,,blicket,22,image-keyboard-response,,
916,lc_lc,,,,,lc_lc,,,,,,,,,,blicket_images/ls.jpg,,0.0-19.0,,,, ,820,blicket_images/ls_off.jpg,,153961,,feedback,23,image-keyboard-response,,
916,lc_lc,True,1,,,lc_lc,,f,off,,,,,,,blicket_images/ds.jpg,,0.0-20.0,,,,f,3895,blicket_images/ds.jpg,,157859,,blicket,24,image-keyboard-response,,
916,lc_lc,,,,,lc_lc,,,,,,,,,,blicket_images/ds.jpg,,0.0-21.0,,,, ,784,blicket_images/ds_off.jpg,,158645,,feedback,25,image-keyboard-response,,
916,lc_lc,False,0,,,lc_lc,,f,off,,,,,,,blicket_images/dc.jpg,,0.0-22.0,,,,j,3256,blicket_images/dc.jpg,,161904,,blicket,26,image-keyboard-response,,
916,lc_lc,,,,,lc_lc,,,,,,,,,,blicket_images/dc.jpg,,0.0-23.0,,,, ,702,blicket_images/dc_off.jpg,,162609,,feedback,27,image-keyboard-response,,
916,lc_lc,False,0,,,lc_lc,,j,on,,,,,,,blicket_images/lc.jpg,,0.0-24.0,,,,f,1865,blicket_images/lc.jpg,,164475,,blicket,28,image-keyboard-response,,
916,lc_lc,,,,,lc_lc,,,,,,,,,,blicket_images/lc.jpg,,0.0-25.0,,,, ,3670,blicket_images/lc_on.jpg,,168148,,feedback,29,image-keyboard-response,,
916,lc_lc,False,0,,,lc_lc,,f,off,,,,,,,blicket_images/dc.jpg,,0.0-26.0,,,,j,2457,blicket_images/dc.jpg,,170607,,blicket,30,image-keyboard-response,,
916,lc_lc,,,,,lc_lc,,,,,,,,,,blicket_images/dc.jpg,,0.0-27.0,,,, ,977,blicket_images/dc_off.jpg,,171586,,feedback,31,image-keyboard-response,,
916,lc_lc,False,0,,,lc_lc,,f,off,,,,,,,blicket_images/ls.jpg,,0.0-28.0,,,,j,3606,blicket_images/ls.jpg,,175194,,blicket,32,image-keyboard-response,,
916,lc_lc,,,,,lc_lc,,,,,,,,,,blicket_images/ls.jpg,,0.0-29.0,,,, ,654,blicket_images/ls_off.jpg,,175850,,feedback,33,image-keyboard-response,,
916,lc_lc,True,1,,,lc_lc,,f,off,,,,,,,blicket_images/dc.jpg,,0.0-30.0,,,,f,2655,blicket_images/dc.jpg,,178508,,blicket,34,image-keyboard-response,,
916,lc_lc,,,,,lc_lc,,,,,,,,,,blicket_images/dc.jpg,,0.0-31.0,,,, ,1227,blicket_images/dc_off.jpg,,179737,,feedback,35,image-keyboard-response,,
916,lc_lc,True,1,,,lc_lc,,f,off,,,,,,,blicket_images/ls.jpg,,0.0-32.0,,,,f,1715,blicket_images/ls.jpg,,181453,,blicket,36,image-keyboard-response,,
916,lc_lc,,,,,lc_lc,,,,,,,,,,blicket_images/ls.jpg,,0.0-33.0,,,, ,910,blicket_images/ls_off.jpg,,182365,,feedback,37,image-keyboard-response,,
916,lc_lc,True,1,,,lc_lc,,f,off,,,,,,,blicket_images/ds.jpg,,0.0-34.0,,,,f,1541,blicket_images/ds.jpg,,183908,,blicket,38,image-keyboard-response,,
916,lc_lc,,,,,lc_lc,,,,,,,,,,blicket_images/ds.jpg,,0.0-35.0,,,, ,856,blicket_images/ds_off.jpg,,184768,,feedback,39,image-keyboard-response,,
916,lc_lc,False,0,,,lc_lc,,j,on,,,,,,,blicket_images/lc.jpg,,0.0-36.0,,,,f,1341,blicket_images/lc.jpg,,186110,,blicket,40,image-keyboard-response,,
916,lc_lc,False,0,,,lc_lc,blicket_images/lc.jpg,,lc,,,,,,,,blicket_images/ls.jpg,0.0-37.0,,,,ls,10895,"Which of these options shows the image from the last trial, that you just saw?",,197010,,pop_quiz,41,html-button-response,,
916,lc_lc,True,1,,,lc_lc,,,['lc'],,,,,,,,,0.0-38.0,,[0],,['lc'],10685,,,207706,,rule_question,42,survey-multi-select,,
916,lc_lc,,,,,lc_lc,,,,,,,,,,,,0.0-39.0,,,,0,5418,"<p>Thank you for participating!</p>You answered 8 out of 16 trials correctly, and will recieve a $0.20 bonus.<p>Now you will complete a short survey before finishing the experiment.</p>",,213128,,,43,html-button-response,,
916,lc_lc,,,54,0.2,lc_lc,,,,Non-Hispanic,,,,I just guessed.,Female,,,0.0-40.0,0.5,,White,"{'age': '54', 'race': 'White', 'gender': 'Female', 'feedback': 'I just guessed.', 'ethnicity': 'Non-Hispanic', 'other_race': '', 'other_gender': ''}",21720,,,234850,,exit_survey,44,survey-html-form,,
868,lc_lc,,,,,lc_lc,,,,,[],[],[],,,,,0.0-0.0,,,,,,,True,385,False,,0,preload,,
868,lc_lc,,,,,lc_lc,,,,,[],[],[],,,,,0.0-1.0,,,,,,,True,530,False,,1,preload,,
868,lc_lc,,,,,lc_lc,,,,,,,,,,,,0.0-2.0,,,,,,,True,5332,,,2,fullscreen,,
868,lc_lc,,,,,lc_lc,,,,,,,,,,,,0.0-3.0,,,,0,6920,"<p><b>Consent Form</b></p> <div style=""text-align:left;background-color:lightblue; padding:20px; max-width:900px;""><p><b>Description:</b> Welcome! You are invited to participate in a research study in cognitive psychology. You will be asked to perform various tasks on a computer which may include: looking at images or videos, listening to sounds, reading scenarios, or playing games. You may be asked a number of different questions about making judgments and intepreting people's actions. All information collected will remain confidential. </p> <p> <b>Risks and benefits:</b> Risks involved in this study are the same as those normally associated with using a computer (e.g., mild eye/arm strain). If you have any pre- existing conditions that might make reading and completing a computer-based survey strenuous for you, you should probably elect to not participate in this study. If at any time during the study you feel unable to participate because you are experiencing strain, you may end your participation without penalty. We cannot and do not guarantee or promise that you will receive any benefits from this study. Your decision whether or not to participate in this study will not affect your employment, medical care, and/or grades in school. </p><p><b>Time involvement:</b> Your participation in this experiment will take  5 minutes. </p><p><b> Payment:</b> If recruitment materials indicate payment (e.g., Prolific or other recruitment), you will receive compensation as indicated. </p><p><b>Subject's rights:</b> If you have read this notice and have decided to participate in this project, please understand your participation is voluntary and you have the right to withdraw your consent or discontinue participation at any time without penalty or loss of benefits to which you are otherwise entitled. You have the right to refuse to answer particular questions. Your individual privacy will be maintained in all published and written data resulting from the study. </p><p><b>Contact information:</b> If you have any questions, concerns or complaints about this research study, its procedures, or risks and benefits, you should ask the Protocol Director, (Professor Tobias Gerstenberg, Phone: (650) 725-2431; Email: gerstenberg@stanford.edu). </p><p><b>Independent contact:</b> If you are not satisfied with how this study is being conducted, or if you have any concerns, complaints, or general questions about the research or your rights as a participant, please contact the Stanford Institutional Review Board (IRB) to speak to someone independent of the research team via email at irb2-manager@lists.stanford.edu, or via phone at (650) 723-2480 or toll free at 1-866-680-2906. You can also write to the Stanford IRB, Stanford University, 3000 El Camino Real, Five Palo Alto Square, 4th Floor, Palo Alto, CA 94306. </p><p>You may want to print a copy of this consent form to keep. By clicking the button below, you acknowledge that you have read the above information, that you are 18 years of age, or older and give your consent to participate in our internet-based study and consent for us to analyze the resulting data. </p> </div><p> Do you agree with the terms of the experiment as explained above? </p>",,12260,,,3,html-button-response,,
868,lc_lc,,,,,lc_lc,,,,,,,,,,,,0.0-4.0-0.0,,,,,35845,,,48109,,instructions_pt1,4,instructions,"[{'page_index': 0, 'viewing_time': 5606}, {'page_index': 1, 'viewing_time': 13254}, {'page_index': 2, 'viewing_time': 4002}, {'page_index': 3, 'viewing_time': 8578}, {'page_index': 4, 'viewing_time': 4402}]",
868,lc_lc,True,,,,lc_lc,,,j,,,,,,,,,0.0-4.0-1.0-0.0,,,,j,24952,blicket_images/red_pyramid.jpg,,73096,,comprehension_quiz,5,image-keyboard-response,,
868,lc_lc,True,,,,lc_lc,,, ,,,,,,,,,0.0-4.0-1.0-1.0,,,, ,2943,blicket_images/red_pyramid_on.jpg,,76046,,comprehension_quiz,6,image-keyboard-response,,
868,lc_lc,True,,,,lc_lc,,,f,,,,,,,,,0.0-4.0-1.0-2.0,,,,f,7052,blicket_images/purple_prism.jpg,,83103,,comprehension_quiz,7,image-keyboard-response,,
868,lc_lc,True,,,,lc_lc,,, ,,,,,,,,,0.0-4.0-1.0-3.0,,,, ,2759,blicket_images/purple_prism_off.jpg,,85867,,comprehension_quiz,8,image-keyboard-response,,
868,lc_lc,,,,,lc_lc,,,,,,,,,,,,0.0-5.0,,,,,79939,,,165810,,,9,instructions,"[{'page_index': 0, 'viewing_time': 10406}, {'page_index': 1, 'viewing_time': 3096}, {'page_index': 2, 'viewing_time': 267}, {'page_index': 3, 'viewing_time': 2831}, {'page_index': 4, 'viewing_time': 1541}, {'page_index': 5, 'viewing_time': 17172}, {'page_index': 6, 'viewing_time': 28102}, {'page_index': 7, 'viewing_time': 14302}, {'page_index': 8, 'viewing_time': 2221}]",
868,lc_lc,False,0,,,lc_lc,,f,off,,,,,,,blicket_images/dc.jpg,,0.0-6.0,,,,j,7172,blicket_images/dc.jpg,,172988,,blicket,10,image-keyboard-response,,
868,lc_lc,,,,,lc_lc,,,,,,,,,,blicket_images/dc.jpg,,0.0-7.0,,,, ,5930,blicket_images/dc_off.jpg,,178925,,feedback,11,image-keyboard-response,,
868,lc_lc,True,1,,,lc_lc,,j,on,,,,,,,blicket_images/lc.jpg,,0.0-8.0,,,,j,3568,blicket_images/lc.jpg,,182496,,blicket,12,image-keyboard-response,,
868,lc_lc,,,,,lc_lc,,,,,,,,,,blicket_images/lc.jpg,,0.0-9.0,,,, ,4218,blicket_images/lc_on.jpg,,186718,,feedback,13,image-keyboard-response,,
868,lc_lc,True,1,,,lc_lc,,f,off,,,,,,,blicket_images/ds.jpg,,0.0-10.0,,,,f,3910,blicket_images/ds.jpg,,190632,,blicket,14,image-keyboard-response,,
868,lc_lc,,,,,lc_lc,,,,,,,,,,blicket_images/ds.jpg,,0.0-11.0,,,, ,7513,blicket_images/ds_off.jpg,,198148,,feedback,15,image-keyboard-response,,
868,lc_lc,True,1,,,lc_lc,,j,on,,,,,,,blicket_images/lc.jpg,,0.0-12.0,,,,j,5906,blicket_images/lc.jpg,,204058,,blicket,16,image-keyboard-response,,
868,lc_lc,,,,,lc_lc,,,,,,,,,,blicket_images/lc.jpg,,0.0-13.0,,,, ,4629,blicket_images/lc_on.jpg,,208691,,feedback,17,image-keyboard-response,,
868,lc_lc,True,1,,,lc_lc,,f,off,,,,,,,blicket_images/ls.jpg,,0.0-14.0,,,,f,3958,blicket_images/ls.jpg,,212652,,blicket,18,image-keyboard-response,,
868,lc_lc,,,,,lc_lc,,,,,,,,,,blicket_images/ls.jpg,,0.0-15.0,,,, ,3853,blicket_images/ls_off.jpg,,216510,,feedback,19,image-keyboard-response,,
868,lc_lc,False,0,,,lc_lc,,f,off,,,,,,,blicket_images/dc.jpg,,0.0-16.0,,,,j,3223,blicket_images/dc.jpg,,219737,,blicket,20,image-keyboard-response,,
868,lc_lc,,,,,lc_lc,,,,,,,,,,blicket_images/dc.jpg,,0.0-17.0,,,, ,5148,blicket_images/dc_off.jpg,,224888,,feedback,21,image-keyboard-response,,
868,lc_lc,True,1,,,lc_lc,,f,off,,,,,,,blicket_images/ds.jpg,,0.0-18.0,,,,f,3732,blicket_images/ds.jpg,,228624,,blicket,22,image-keyboard-response,,
868,lc_lc,,,,,lc_lc,,,,,,,,,,blicket_images/ds.jpg,,0.0-19.0,,,, ,5562,blicket_images/ds_off.jpg,,234190,,feedback,23,image-keyboard-response,,
868,lc_lc,True,1,,,lc_lc,,f,off,,,,,,,blicket_images/dc.jpg,,0.0-20.0,,,,f,6160,blicket_images/dc.jpg,,240354,,blicket,24,image-keyboard-response,,
868,lc_lc,,,,,lc_lc,,,,,,,,,,blicket_images/dc.jpg,,0.0-21.0,,,, ,3645,blicket_images/dc_off.jpg,,244002,,feedback,25,image-keyboard-response,,
868,lc_lc,True,1,,,lc_lc,,j,on,,,,,,,blicket_images/lc.jpg,,0.0-22.0,,,,j,2635,blicket_images/lc.jpg,,246641,,blicket,26,image-keyboard-response,,
868,lc_lc,,,,,lc_lc,,,,,,,,,,blicket_images/lc.jpg,,0.0-23.0,,,, ,1452,blicket_images/lc_on.jpg,,248097,,feedback,27,image-keyboard-response,,
868,lc_lc,True,1,,,lc_lc,,f,off,,,,,,,blicket_images/ds.jpg,,0.0-24.0,,,,f,2192,blicket_images/ds.jpg,,250292,,blicket,28,image-keyboard-response,,
868,lc_lc,,,,,lc_lc,,,,,,,,,,blicket_images/ds.jpg,,0.0-25.0,,,, ,1492,blicket_images/ds_off.jpg,,251787,,feedback,29,image-keyboard-response,,
868,lc_lc,False,0,,,lc_lc,,f,off,,,,,,,blicket_images/ls.jpg,,0.0-26.0,,,,j,1916,blicket_images/ls.jpg,,253706,,blicket,30,image-keyboard-response,,
868,lc_lc,,,,,lc_lc,,,,,,,,,,blicket_images/ls.jpg,,0.0-27.0,,,, ,2052,blicket_images/ls_off.jpg,,255762,,feedback,31,image-keyboard-response,,
868,lc_lc,True,1,,,lc_lc,,f,off,,,,,,,blicket_images/dc.jpg,,0.0-28.0,,,,f,4278,blicket_images/dc.jpg,,260043,,blicket,32,image-keyboard-response,,
868,lc_lc,,,,,lc_lc,,,,,,,,,,blicket_images/dc.jpg,,0.0-29.0,,,, ,1530,blicket_images/dc_off.jpg,,261577,,feedback,33,image-keyboard-response,,
868,lc_lc,True,1,,,lc_lc,,f,off,,,,,,,blicket_images/ls.jpg,,0.0-30.0,,,,f,2432,blicket_images/ls.jpg,,264012,,blicket,34,image-keyboard-response,,
868,lc_lc,,,,,lc_lc,,,,,,,,,,blicket_images/ls.jpg,,0.0-31.0,,,, ,1408,blicket_images/ls_off.jpg,,265423,,feedback,35,image-keyboard-response,,
868,lc_lc,True,1,,,lc_lc,,j,on,,,,,,,blicket_images/lc.jpg,,0.0-32.0,,,,j,1974,blicket_images/lc.jpg,,267401,,blicket,36,image-keyboard-response,,
868,lc_lc,,,,,lc_lc,,,,,,,,,,blicket_images/lc.jpg,,0.0-33.0,,,, ,1477,blicket_images/lc_on.jpg,,268881,,feedback,37,image-keyboard-response,,
868,lc_lc,False,0,,,lc_lc,,f,off,,,,,,,blicket_images/dc.jpg,,0.0-34.0,,,,j,2186,blicket_images/dc.jpg,,271070,,blicket,38,image-keyboard-response,,
868,lc_lc,,,,,lc_lc,,,,,,,,,,blicket_images/dc.jpg,,0.0-35.0,,,, ,1391,blicket_images/dc_off.jpg,,272464,,feedback,39,image-keyboard-response,,
868,lc_lc,True,1,,,lc_lc,,j,on,,,,,,,blicket_images/lc.jpg,,0.0-36.0,,,,j,1601,blicket_images/lc.jpg,,274068,,blicket,40,image-keyboard-response,,
868,lc_lc,True,1,,,lc_lc,blicket_images/lc.jpg,,lc,,,,,,,,blicket_images/lc.jpg,0.0-37.0,,,,lc,9821,"Which of these options shows the image from the last trial, that you just saw?",,283899,,pop_quiz,41,html-button-response,,
868,lc_lc,False,0,,,lc_lc,,,['lc'],,,,,,,,,0.0-38.0,,[0],,"['dc', 'ds', 'lc', 'ls']",36494,,,320423,,rule_question,42,survey-multi-select,,
868,lc_lc,,,,,lc_lc,,,,,,,,,,,,0.0-39.0,,,,0,7749,"<p>Thank you for participating!</p>You answered 12 out of 16 trials correctly, and will recieve a $0.30 bonus.<p>Now you will complete a short survey before finishing the experiment.</p>",,328184,,,43,html-button-response,,
868,lc_lc,,,69,0.30000000000000004,lc_lc,,,,Non-Hispanic,,,,First choice was a random guess. I chose the opposite answer for the second choice. I noted the answers and choose accordlingly.,Male,,,0.0-40.0,0.75,,White,"{'age': '69', 'race': 'White', 'gender': 'Male', 'feedback': 'First choice was a random guess. I chose the opposite answer for the second choice. I noted the answers and choose accordlingly.', 'ethnicity': 'Non-Hispanic', 'other_race': '', 'other_gender': ''}",105768,,,433966,,exit_survey,44,survey-html-form,,
924,lc_lc,,,,,lc_lc,,,,,[],[],[],,,,,0.0-0.0,,,,,,,True,1539,False,,0,preload,,
924,lc_lc,,,,,lc_lc,,,,,[],[],[],,,,,0.0-1.0,,,,,,,True,3333,False,,1,preload,,
924,lc_lc,,,,,lc_lc,,,,,,,,,,,,0.0-2.0,,,,,,,True,42828,,,2,fullscreen,,
924,lc_lc,,,,,lc_lc,,,,,,,,,,,,0.0-3.0,,,,0,75605,"<p><b>Consent Form</b></p> <div style=""text-align:left;background-color:lightblue; padding:20px; max-width:900px;""><p><b>Description:</b> Welcome! You are invited to participate in a research study in cognitive psychology. You will be asked to perform various tasks on a computer which may include: looking at images or videos, listening to sounds, reading scenarios, or playing games. You may be asked a number of different questions about making judgments and intepreting people's actions. All information collected will remain confidential. </p> <p> <b>Risks and benefits:</b> Risks involved in this study are the same as those normally associated with using a computer (e.g., mild eye/arm strain). If you have any pre- existing conditions that might make reading and completing a computer-based survey strenuous for you, you should probably elect to not participate in this study. If at any time during the study you feel unable to participate because you are experiencing strain, you may end your participation without penalty. We cannot and do not guarantee or promise that you will receive any benefits from this study. Your decision whether or not to participate in this study will not affect your employment, medical care, and/or grades in school. </p><p><b>Time involvement:</b> Your participation in this experiment will take  5 minutes. </p><p><b> Payment:</b> If recruitment materials indicate payment (e.g., Prolific or other recruitment), you will receive compensation as indicated. </p><p><b>Subject's rights:</b> If you have read this notice and have decided to participate in this project, please understand your participation is voluntary and you have the right to withdraw your consent or discontinue participation at any time without penalty or loss of benefits to which you are otherwise entitled. You have the right to refuse to answer particular questions. Your individual privacy will be maintained in all published and written data resulting from the study. </p><p><b>Contact information:</b> If you have any questions, concerns or complaints about this research study, its procedures, or risks and benefits, you should ask the Protocol Director, (Professor Tobias Gerstenberg, Phone: (650) 725-2431; Email: gerstenberg@stanford.edu). </p><p><b>Independent contact:</b> If you are not satisfied with how this study is being conducted, or if you have any concerns, complaints, or general questions about the research or your rights as a participant, please contact the Stanford Institutional Review Board (IRB) to speak to someone independent of the research team via email at irb2-manager@lists.stanford.edu, or via phone at (650) 723-2480 or toll free at 1-866-680-2906. You can also write to the Stanford IRB, Stanford University, 3000 El Camino Real, Five Palo Alto Square, 4th Floor, Palo Alto, CA 94306. </p><p>You may want to print a copy of this consent form to keep. By clicking the button below, you acknowledge that you have read the above information, that you are 18 years of age, or older and give your consent to participate in our internet-based study and consent for us to analyze the resulting data. </p> </div><p> Do you agree with the terms of the experiment as explained above? </p>",,118437,,,3,html-button-response,,
924,lc_lc,,,,,lc_lc,,,,,,,,,,,,0.0-4.0-0.0,,,,,21742,,,140181,,instructions_pt1,4,instructions,"[{'page_index': 0, 'viewing_time': 3048}, {'page_index': 1, 'viewing_time': 2548}, {'page_index': 2, 'viewing_time': 3506}, {'page_index': 3, 'viewing_time': 8980}, {'page_index': 4, 'viewing_time': 3658}]",
924,lc_lc,True,,,,lc_lc,,,j,,,,,,,,,0.0-4.0-1.0-0.0,,,,j,7847,blicket_images/red_pyramid.jpg,,148033,,comprehension_quiz,5,image-keyboard-response,,
924,lc_lc,True,,,,lc_lc,,, ,,,,,,,,,0.0-4.0-1.0-1.0,,,, ,1593,blicket_images/red_pyramid_on.jpg,,149629,,comprehension_quiz,6,image-keyboard-response,,
924,lc_lc,True,,,,lc_lc,,,f,,,,,,,,,0.0-4.0-1.0-2.0,,,,f,4487,blicket_images/purple_prism.jpg,,154118,,comprehension_quiz,7,image-keyboard-response,,
924,lc_lc,True,,,,lc_lc,,, ,,,,,,,,,0.0-4.0-1.0-3.0,,,, ,1561,blicket_images/purple_prism_off.jpg,,155681,,comprehension_quiz,8,image-keyboard-response,,
924,lc_lc,,,,,lc_lc,,,,,,,,,,,,0.0-5.0,,,,,27287,,,182971,,,9,instructions,"[{'page_index': 0, 'viewing_time': 4654}, {'page_index': 1, 'viewing_time': 1953}, {'page_index': 2, 'viewing_time': 1021}, {'page_index': 3, 'viewing_time': 1191}, {'page_index': 4, 'viewing_time': 1329}, {'page_index': 5, 'viewing_time': 6867}, {'page_index': 6, 'viewing_time': 2775}, {'page_index': 7, 'viewing_time': 5868}, {'page_index': 8, 'viewing_time': 1628}]",
924,lc_lc,False,0,,,lc_lc,,f,off,,,,,,,blicket_images/ds.jpg,,0.0-6.0,,,,j,6162,blicket_images/ds.jpg,,189134,,blicket,10,image-keyboard-response,,
924,lc_lc,,,,,lc_lc,,,,,,,,,,blicket_images/ds.jpg,,0.0-7.0,,,, ,1988,blicket_images/ds_off.jpg,,191127,,feedback,11,image-keyboard-response,,
924,lc_lc,False,0,,,lc_lc,,j,on,,,,,,,blicket_images/lc.jpg,,0.0-8.0,,,,f,4230,blicket_images/lc.jpg,,195358,,blicket,12,image-keyboard-response,,
924,lc_lc,,,,,lc_lc,,,,,,,,,,blicket_images/lc.jpg,,0.0-9.0,,,, ,1516,blicket_images/lc_on.jpg,,196876,,feedback,13,image-keyboard-response,,
924,lc_lc,False,0,,,lc_lc,,f,off,,,,,,,blicket_images/ls.jpg,,0.0-10.0,,,,j,1273,blicket_images/ls.jpg,,198151,,blicket,14,image-keyboard-response,,
924,lc_lc,,,,,lc_lc,,,,,,,,,,blicket_images/ls.jpg,,0.0-11.0,,,, ,1430,blicket_images/ls_off.jpg,,199583,,feedback,15,image-keyboard-response,,
924,lc_lc,True,1,,,lc_lc,,f,off,,,,,,,blicket_images/ds.jpg,,0.0-12.0,,,,f,2539,blicket_images/ds.jpg,,202123,,blicket,16,image-keyboard-response,,
924,lc_lc,,,,,lc_lc,,,,,,,,,,blicket_images/ds.jpg,,0.0-13.0,,,, ,2293,blicket_images/ds_off.jpg,,204418,,feedback,17,image-keyboard-response,,
924,lc_lc,True,1,,,lc_lc,,f,off,,,,,,,blicket_images/dc.jpg,,0.0-14.0,,,,f,1628,blicket_images/dc.jpg,,206047,,blicket,18,image-keyboard-response,,
924,lc_lc,,,,,lc_lc,,,,,,,,,,blicket_images/dc.jpg,,0.0-15.0,,,, ,1565,blicket_images/dc_off.jpg,,207614,,feedback,19,image-keyboard-response,,
924,lc_lc,True,1,,,lc_lc,,j,on,,,,,,,blicket_images/lc.jpg,,0.0-16.0,,,,j,1337,blicket_images/lc.jpg,,208953,,blicket,20,image-keyboard-response,,
924,lc_lc,,,,,lc_lc,,,,,,,,,,blicket_images/lc.jpg,,0.0-17.0,,,, ,974,blicket_images/lc_on.jpg,,209929,,feedback,21,image-keyboard-response,,
924,lc_lc,True,1,,,lc_lc,,f,off,,,,,,,blicket_images/ls.jpg,,0.0-18.0,,,,f,938,blicket_images/ls.jpg,,210869,,blicket,22,image-keyboard-response,,
924,lc_lc,,,,,lc_lc,,,,,,,,,,blicket_images/ls.jpg,,0.0-19.0,,,, ,1033,blicket_images/ls_off.jpg,,211905,,feedback,23,image-keyboard-response,,
924,lc_lc,True,1,,,lc_lc,,f,off,,,,,,,blicket_images/dc.jpg,,0.0-20.0,,,,f,1698,blicket_images/dc.jpg,,213605,,blicket,24,image-keyboard-response,,
924,lc_lc,,,,,lc_lc,,,,,,,,,,blicket_images/dc.jpg,,0.0-21.0,,,, ,774,blicket_images/dc_off.jpg,,214381,,feedback,25,image-keyboard-response,,
924,lc_lc,True,1,,,lc_lc,,f,off,,,,,,,blicket_images/ds.jpg,,0.0-22.0,,,,f,1032,blicket_images/ds.jpg,,215415,,blicket,26,image-keyboard-response,,
924,lc_lc,,,,,lc_lc,,,,,,,,,,blicket_images/ds.jpg,,0.0-23.0,,,, ,275,blicket_images/ds_off.jpg,,215692,,feedback,27,image-keyboard-response,,
924,lc_lc,True,1,,,lc_lc,,f,off,,,,,,,blicket_images/ls.jpg,,0.0-24.0,,,,f,933,blicket_images/ls.jpg,,216627,,blicket,28,image-keyboard-response,,
924,lc_lc,,,,,lc_lc,,,,,,,,,,blicket_images/ls.jpg,,0.0-25.0,,,, ,291,blicket_images/ls_off.jpg,,216920,,feedback,29,image-keyboard-response,,
924,lc_lc,False,0,,,lc_lc,,f,off,,,,,,,blicket_images/dc.jpg,,0.0-26.0,,,,j,1663,blicket_images/dc.jpg,,218585,,blicket,30,image-keyboard-response,,
924,lc_lc,,,,,lc_lc,,,,,,,,,,blicket_images/dc.jpg,,0.0-27.0,,,, ,2098,blicket_images/dc_off.jpg,,220685,,feedback,31,image-keyboard-response,,
924,lc_lc,False,0,,,lc_lc,,f,off,,,,,,,blicket_images/ls.jpg,,0.0-28.0,,,,j,1455,blicket_images/ls.jpg,,222142,,blicket,32,image-keyboard-response,,
924,lc_lc,,,,,lc_lc,,,,,,,,,,blicket_images/ls.jpg,,0.0-29.0,,,, ,2292,blicket_images/ls_off.jpg,,224436,,feedback,33,image-keyboard-response,,
924,lc_lc,True,1,,,lc_lc,,f,off,,,,,,,blicket_images/ds.jpg,,0.0-30.0,,,,f,1698,blicket_images/ds.jpg,,226136,,blicket,34,image-keyboard-response,,
924,lc_lc,,,,,lc_lc,,,,,,,,,,blicket_images/ds.jpg,,0.0-31.0,,,, ,1742,blicket_images/ds_off.jpg,,227880,,feedback,35,image-keyboard-response,,
924,lc_lc,True,1,,,lc_lc,,j,on,,,,,,,blicket_images/lc.jpg,,0.0-32.0,,,,j,1259,blicket_images/lc.jpg,,229140,,blicket,36,image-keyboard-response,,
924,lc_lc,,,,,lc_lc,,,,,,,,,,blicket_images/lc.jpg,,0.0-33.0,,,, ,1358,blicket_images/lc_on.jpg,,230499,,feedback,37,image-keyboard-response,,
924,lc_lc,True,1,,,lc_lc,,f,off,,,,,,,blicket_images/ds.jpg,,0.0-34.0,,,,f,1150,blicket_images/ds.jpg,,231650,,blicket,38,image-keyboard-response,,
924,lc_lc,,,,,lc_lc,,,,,,,,,,blicket_images/ds.jpg,,0.0-35.0,,,, ,1397,blicket_images/ds_off.jpg,,233049,,feedback,39,image-keyboard-response,,
924,lc_lc,True,1,,,lc_lc,,j,on,,,,,,,blicket_images/lc.jpg,,0.0-36.0,,,,j,1325,blicket_images/lc.jpg,,234377,,blicket,40,image-keyboard-response,,
924,lc_lc,True,1,,,lc_lc,blicket_images/lc.jpg,,lc,,,,,,,,blicket_images/lc.jpg,0.0-37.0,,,,lc,3310,"Which of these options shows the image from the last trial, that you just saw?",,237691,,pop_quiz,41,html-button-response,,
924,lc_lc,True,1,,,lc_lc,,,['lc'],,,,,,,,,0.0-38.0,,[0],,['lc'],5000,,,242703,,rule_question,42,survey-multi-select,,
924,lc_lc,,,,,lc_lc,,,,,,,,,,,,0.0-39.0,,,,0,5473,"<p>Thank you for participating!</p>You answered 11 out of 16 trials correctly, and will recieve a $0.28 bonus.<p>Now you will complete a short survey before finishing the experiment.</p>",,248188,,,43,html-button-response,,
924,lc_lc,,,49,0.275,lc_lc,,,,Non-Hispanic,,,,"If my previous response to an object was wrong, I tried to change my response the next time I saw the object.",Female,,,0.0-40.0,0.6875,,White,"{'age': '49', 'race': 'White', 'gender': 'Female', 'feedback': 'If my previous response to an object was wrong, I tried to change my response the next time I saw the object.', 'ethnicity': 'Non-Hispanic', 'other_race': '', 'other_gender': ''}",65733,,,313963,,exit_survey,44,survey-html-form,,
900,lc_lc,,,,,lc_lc,,,,,[],[],[],,,,,0.0-0.0,,,,,,,True,234,False,,0,preload,,
900,lc_lc,,,,,lc_lc,,,,,[],[],[],,,,,0.0-1.0,,,,,,,True,464,False,,1,preload,,
900,lc_lc,,,,,lc_lc,,,,,,,,,,,,0.0-2.0,,,,,,,True,4654,,,2,fullscreen,,
900,lc_lc,,,,,lc_lc,,,,,,,,,,,,0.0-3.0,,,,0,3871,"<p><b>Consent Form</b></p> <div style=""text-align:left;background-color:lightblue; padding:20px; max-width:900px;""><p><b>Description:</b> Welcome! You are invited to participate in a research study in cognitive psychology. You will be asked to perform various tasks on a computer which may include: looking at images or videos, listening to sounds, reading scenarios, or playing games. You may be asked a number of different questions about making judgments and intepreting people's actions. All information collected will remain confidential. </p> <p> <b>Risks and benefits:</b> Risks involved in this study are the same as those normally associated with using a computer (e.g., mild eye/arm strain). If you have any pre- existing conditions that might make reading and completing a computer-based survey strenuous for you, you should probably elect to not participate in this study. If at any time during the study you feel unable to participate because you are experiencing strain, you may end your participation without penalty. We cannot and do not guarantee or promise that you will receive any benefits from this study. Your decision whether or not to participate in this study will not affect your employment, medical care, and/or grades in school. </p><p><b>Time involvement:</b> Your participation in this experiment will take  5 minutes. </p><p><b> Payment:</b> If recruitment materials indicate payment (e.g., Prolific or other recruitment), you will receive compensation as indicated. </p><p><b>Subject's rights:</b> If you have read this notice and have decided to participate in this project, please understand your participation is voluntary and you have the right to withdraw your consent or discontinue participation at any time without penalty or loss of benefits to which you are otherwise entitled. You have the right to refuse to answer particular questions. Your individual privacy will be maintained in all published and written data resulting from the study. </p><p><b>Contact information:</b> If you have any questions, concerns or complaints about this research study, its procedures, or risks and benefits, you should ask the Protocol Director, (Professor Tobias Gerstenberg, Phone: (650) 725-2431; Email: gerstenberg@stanford.edu). </p><p><b>Independent contact:</b> If you are not satisfied with how this study is being conducted, or if you have any concerns, complaints, or general questions about the research or your rights as a participant, please contact the Stanford Institutional Review Board (IRB) to speak to someone independent of the research team via email at irb2-manager@lists.stanford.edu, or via phone at (650) 723-2480 or toll free at 1-866-680-2906. You can also write to the Stanford IRB, Stanford University, 3000 El Camino Real, Five Palo Alto Square, 4th Floor, Palo Alto, CA 94306. </p><p>You may want to print a copy of this consent form to keep. By clicking the button below, you acknowledge that you have read the above information, that you are 18 years of age, or older and give your consent to participate in our internet-based study and consent for us to analyze the resulting data. </p> </div><p> Do you agree with the terms of the experiment as explained above? </p>",,8526,,,3,html-button-response,,
900,lc_lc,,,,,lc_lc,,,,,,,,,,,,0.0-4.0-0.0,,,,,25977,,,34504,,instructions_pt1,4,instructions,"[{'page_index': 0, 'viewing_time': 5326}, {'page_index': 1, 'viewing_time': 4706}, {'page_index': 2, 'viewing_time': 4650}, {'page_index': 3, 'viewing_time': 7408}, {'page_index': 4, 'viewing_time': 3886}]",
900,lc_lc,True,,,,lc_lc,,,j,,,,,,,,,0.0-4.0-1.0-0.0,,,,j,9473,blicket_images/red_pyramid.jpg,,43985,,comprehension_quiz,5,image-keyboard-response,,
900,lc_lc,True,,,,lc_lc,,, ,,,,,,,,,0.0-4.0-1.0-1.0,,,, ,2392,blicket_images/red_pyramid_on.jpg,,46378,,comprehension_quiz,6,image-keyboard-response,,
900,lc_lc,False,,,,lc_lc,,,f,,,,,,,,,0.0-4.0-1.0-2.0,,,,j,3202,blicket_images/purple_prism.jpg,,49581,,comprehension_quiz,7,image-keyboard-response,,
900,lc_lc,True,,,,lc_lc,,, ,,,,,,,,,0.0-4.0-1.0-3.0,,,, ,1920,blicket_images/purple_prism_off.jpg,,51503,,comprehension_quiz,8,image-keyboard-response,,
900,lc_lc,False,,,,lc_lc,,,,,,,,,,,,0.0-4.0-2.0-0.0,,,,0,5083,<p> Oops! You have answered one or more questions incorrectly.</p><p> Please Review the instructions again before continuing with the experiment </p>,,56588,,fail_message,9,html-button-response,,
900,lc_lc,,,,,lc_lc,,,,,,,,,,,,0.0-4.1-0.1,,,,,14238,,,70836,,instructions_pt1,10,instructions,"[{'page_index': 0, 'viewing_time': 2106}, {'page_index': 1, 'viewing_time': 2116}, {'page_index': 2, 'viewing_time': 2302}, {'page_index': 3, 'viewing_time': 3674}, {'page_index': 4, 'viewing_time': 4040}]",
900,lc_lc,True,,,,lc_lc,,,j,,,,,,,,,0.0-4.1-1.1-0.1,,,,j,2416,blicket_images/red_pyramid.jpg,,73254,,comprehension_quiz,11,image-keyboard-response,,
900,lc_lc,True,,,,lc_lc,,, ,,,,,,,,,0.0-4.1-1.1-1.1,,,, ,1449,blicket_images/red_pyramid_on.jpg,,74704,,comprehension_quiz,12,image-keyboard-response,,
900,lc_lc,True,,,,lc_lc,,,f,,,,,,,,,0.0-4.1-1.1-2.1,,,,f,2380,blicket_images/purple_prism.jpg,,77085,,comprehension_quiz,13,image-keyboard-response,,
900,lc_lc,True,,,,lc_lc,,, ,,,,,,,,,0.0-4.1-1.1-3.1,,,, ,1023,blicket_images/purple_prism_off.jpg,,78109,,comprehension_quiz,14,image-keyboard-response,,
900,lc_lc,,,,,lc_lc,,,,,,,,,,,,0.0-5.0,,,,,42371,,,120480,,,15,instructions,"[{'page_index': 0, 'viewing_time': 6167}, {'page_index': 1, 'viewing_time': 3510}, {'page_index': 2, 'viewing_time': 1540}, {'page_index': 3, 'viewing_time': 1370}, {'page_index': 4, 'viewing_time': 994}, {'page_index': 5, 'viewing_time': 10408}, {'page_index': 6, 'viewing_time': 6622}, {'page_index': 7, 'viewing_time': 10110}, {'page_index': 8, 'viewing_time': 1650}]",
900,lc_lc,False,0,,,lc_lc,,f,off,,,,,,,blicket_images/ds.jpg,,0.0-6.0,,,,j,2437,blicket_images/ds.jpg,,122919,,blicket,16,image-keyboard-response,,
900,lc_lc,,,,,lc_lc,,,,,,,,,,blicket_images/ds.jpg,,0.0-7.0,,,, ,1339,blicket_images/ds_off.jpg,,124263,,feedback,17,image-keyboard-response,,
900,lc_lc,False,0,,,lc_lc,,f,off,,,,,,,blicket_images/dc.jpg,,0.0-8.0,,,,j,1580,blicket_images/dc.jpg,,125844,,blicket,18,image-keyboard-response,,
900,lc_lc,,,,,lc_lc,,,,,,,,,,blicket_images/dc.jpg,,0.0-9.0,,,, ,1118,blicket_images/dc_off.jpg,,126963,,feedback,19,image-keyboard-response,,
900,lc_lc,True,1,,,lc_lc,,j,on,,,,,,,blicket_images/lc.jpg,,0.0-10.0,,,,j,1654,blicket_images/lc.jpg,,128618,,blicket,20,image-keyboard-response,,
900,lc_lc,,,,,lc_lc,,,,,,,,,,blicket_images/lc.jpg,,0.0-11.0,,,, ,1169,blicket_images/lc_on.jpg,,129788,,feedback,21,image-keyboard-response,,
900,lc_lc,True,1,,,lc_lc,,f,off,,,,,,,blicket_images/ds.jpg,,0.0-12.0,,,,f,3607,blicket_images/ds.jpg,,133396,,blicket,22,image-keyboard-response,,
900,lc_lc,,,,,lc_lc,,,,,,,,,,blicket_images/ds.jpg,,0.0-13.0,,,, ,1287,blicket_images/ds_off.jpg,,134684,,feedback,23,image-keyboard-response,,
900,lc_lc,False,0,,,lc_lc,,f,off,,,,,,,blicket_images/ls.jpg,,0.0-14.0,,,,j,1922,blicket_images/ls.jpg,,136607,,blicket,24,image-keyboard-response,,
900,lc_lc,,,,,lc_lc,,,,,,,,,,blicket_images/ls.jpg,,0.0-15.0,,,, ,1520,blicket_images/ls_off.jpg,,138128,,feedback,25,image-keyboard-response,,
900,lc_lc,False,0,,,lc_lc,,f,off,,,,,,,blicket_images/dc.jpg,,0.0-16.0,,,,j,3009,blicket_images/dc.jpg,,141138,,blicket,26,image-keyboard-response,,
900,lc_lc,,,,,lc_lc,,,,,,,,,,blicket_images/dc.jpg,,0.0-17.0,,,, ,1106,blicket_images/dc_off.jpg,,142245,,feedback,27,image-keyboard-response,,
900,lc_lc,True,1,,,lc_lc,,f,off,,,,,,,blicket_images/ds.jpg,,0.0-18.0,,,,f,1574,blicket_images/ds.jpg,,143820,,blicket,28,image-keyboard-response,,
900,lc_lc,,,,,lc_lc,,,,,,,,,,blicket_images/ds.jpg,,0.0-19.0,,,, ,2029,blicket_images/ds_off.jpg,,145850,,feedback,29,image-keyboard-response,,
900,lc_lc,False,0,,,lc_lc,,j,on,,,,,,,blicket_images/lc.jpg,,0.0-20.0,,,,f,991,blicket_images/lc.jpg,,146842,,blicket,30,image-keyboard-response,,
900,lc_lc,,,,,lc_lc,,,,,,,,,,blicket_images/lc.jpg,,0.0-21.0,,,, ,1728,blicket_images/lc_on.jpg,,148572,,feedback,31,image-keyboard-response,,
900,lc_lc,True,1,,,lc_lc,,f,off,,,,,,,blicket_images/ds.jpg,,0.0-22.0,,,,f,1139,blicket_images/ds.jpg,,149712,,blicket,32,image-keyboard-response,,
900,lc_lc,,,,,lc_lc,,,,,,,,,,blicket_images/ds.jpg,,0.0-23.0,,,, ,2371,blicket_images/ds_off.jpg,,152084,,feedback,33,image-keyboard-response,,
900,lc_lc,True,1,,,lc_lc,,f,off,,,,,,,blicket_images/dc.jpg,,0.0-24.0,,,,f,1405,blicket_images/dc.jpg,,153490,,blicket,34,image-keyboard-response,,
900,lc_lc,,,,,lc_lc,,,,,,,,,,blicket_images/dc.jpg,,0.0-25.0,,,, ,1193,blicket_images/dc_off.jpg,,154683,,feedback,35,image-keyboard-response,,
900,lc_lc,True,1,,,lc_lc,,j,on,,,,,,,blicket_images/lc.jpg,,0.0-26.0,,,,j,1796,blicket_images/lc.jpg,,156480,,blicket,36,image-keyboard-response,,
900,lc_lc,,,,,lc_lc,,,,,,,,,,blicket_images/lc.jpg,,0.0-27.0,,,, ,1055,blicket_images/lc_on.jpg,,157536,,feedback,37,image-keyboard-response,,
900,lc_lc,True,1,,,lc_lc,,f,off,,,,,,,blicket_images/ls.jpg,,0.0-28.0,,,,f,1173,blicket_images/ls.jpg,,158710,,blicket,38,image-keyboard-response,,
900,lc_lc,,,,,lc_lc,,,,,,,,,,blicket_images/ls.jpg,,0.0-29.0,,,, ,1257,blicket_images/ls_off.jpg,,159968,,feedback,39,image-keyboard-response,,
900,lc_lc,True,1,,,lc_lc,,f,off,,,,,,,blicket_images/dc.jpg,,0.0-30.0,,,,f,1082,blicket_images/dc.jpg,,161051,,blicket,40,image-keyboard-response,,
900,lc_lc,,,,,lc_lc,,,,,,,,,,blicket_images/dc.jpg,,0.0-31.0,,,, ,884,blicket_images/dc_off.jpg,,161936,,feedback,41,image-keyboard-response,,
900,lc_lc,False,0,,,lc_lc,,f,off,,,,,,,blicket_images/ls.jpg,,0.0-32.0,,,,j,1146,blicket_images/ls.jpg,,163084,,blicket,42,image-keyboard-response,,
900,lc_lc,,,,,lc_lc,,,,,,,,,,blicket_images/ls.jpg,,0.0-33.0,,,, ,887,blicket_images/ls_off.jpg,,163971,,feedback,43,image-keyboard-response,,
900,lc_lc,True,1,,,lc_lc,,f,off,,,,,,,blicket_images/ds.jpg,,0.0-34.0,,,,f,1107,blicket_images/ds.jpg,,165080,,blicket,44,image-keyboard-response,,
900,lc_lc,,,,,lc_lc,,,,,,,,,,blicket_images/ds.jpg,,0.0-35.0,,,, ,1071,blicket_images/ds_off.jpg,,166151,,feedback,45,image-keyboard-response,,
900,lc_lc,False,0,,,lc_lc,,j,on,,,,,,,blicket_images/lc.jpg,,0.0-36.0,,,,f,1880,blicket_images/lc.jpg,,168032,,blicket,46,image-keyboard-response,,
900,lc_lc,False,0,,,lc_lc,blicket_images/lc.jpg,,lc,,,,,,,,blicket_images/ds.jpg,0.0-37.0,,,,ds,8391,"Which of these options shows the image from the last trial, that you just saw?",,176425,,pop_quiz,47,html-button-response,,
900,lc_lc,True,1,,,lc_lc,,,['lc'],,,,,,,,,0.0-38.0,,[0],,['lc'],7255,,,183685,,rule_question,48,survey-multi-select,,
900,lc_lc,,,,,lc_lc,,,,,,,,,,,,0.0-39.0,,,,0,3988,"<p>Thank you for participating!</p>You answered 9 out of 16 trials correctly, and will recieve a $0.23 bonus.<p>Now you will complete a short survey before finishing the experiment.</p>",,187678,,,49,html-button-response,,
900,lc_lc,,,49,0.225,lc_lc,,,,Non-Hispanic,,,,tried to look for a pattern of shape and light/dark ,Female,,,0.0-40.0,0.5625,,White,"{'age': '49', 'race': 'White', 'gender': 'Female', 'feedback': 'tried to look for a pattern of shape and light/dark ', 'ethnicity': 'Non-Hispanic', 'other_race': '', 'other_gender': ''}",32599,,,220279,,exit_survey,50,survey-html-form,,
982,lc_lc,,,,,lc_lc,,,,,[],[],[],,,,,0.0-0.0,,,,,,,True,127,False,,0,preload,,
982,lc_lc,,,,,lc_lc,,,,,[],[],[],,,,,0.0-1.0,,,,,,,True,483,False,,1,preload,,
982,lc_lc,,,,,lc_lc,,,,,,,,,,,,0.0-2.0,,,,,,,True,2815,,,2,fullscreen,,
982,lc_lc,,,,,lc_lc,,,,,,,,,,,,0.0-3.0,,,,0,2579,"<p><b>Consent Form</b></p> <div style=""text-align:left;background-color:lightblue; padding:20px; max-width:900px;""><p><b>Description:</b> Welcome! You are invited to participate in a research study in cognitive psychology. You will be asked to perform various tasks on a computer which may include: looking at images or videos, listening to sounds, reading scenarios, or playing games. You may be asked a number of different questions about making judgments and intepreting people's actions. All information collected will remain confidential. </p> <p> <b>Risks and benefits:</b> Risks involved in this study are the same as those normally associated with using a computer (e.g., mild eye/arm strain). If you have any pre- existing conditions that might make reading and completing a computer-based survey strenuous for you, you should probably elect to not participate in this study. If at any time during the study you feel unable to participate because you are experiencing strain, you may end your participation without penalty. We cannot and do not guarantee or promise that you will receive any benefits from this study. Your decision whether or not to participate in this study will not affect your employment, medical care, and/or grades in school. </p><p><b>Time involvement:</b> Your participation in this experiment will take  5 minutes. </p><p><b> Payment:</b> If recruitment materials indicate payment (e.g., Prolific or other recruitment), you will receive compensation as indicated. </p><p><b>Subject's rights:</b> If you have read this notice and have decided to participate in this project, please understand your participation is voluntary and you have the right to withdraw your consent or discontinue participation at any time without penalty or loss of benefits to which you are otherwise entitled. You have the right to refuse to answer particular questions. Your individual privacy will be maintained in all published and written data resulting from the study. </p><p><b>Contact information:</b> If you have any questions, concerns or complaints about this research study, its procedures, or risks and benefits, you should ask the Protocol Director, (Professor Tobias Gerstenberg, Phone: (650) 725-2431; Email: gerstenberg@stanford.edu). </p><p><b>Independent contact:</b> If you are not satisfied with how this study is being conducted, or if you have any concerns, complaints, or general questions about the research or your rights as a participant, please contact the Stanford Institutional Review Board (IRB) to speak to someone independent of the research team via email at irb2-manager@lists.stanford.edu, or via phone at (650) 723-2480 or toll free at 1-866-680-2906. You can also write to the Stanford IRB, Stanford University, 3000 El Camino Real, Five Palo Alto Square, 4th Floor, Palo Alto, CA 94306. </p><p>You may want to print a copy of this consent form to keep. By clicking the button below, you acknowledge that you have read the above information, that you are 18 years of age, or older and give your consent to participate in our internet-based study and consent for us to analyze the resulting data. </p> </div><p> Do you agree with the terms of the experiment as explained above? </p>",,5395,,,3,html-button-response,,
982,lc_lc,,,,,lc_lc,,,,,,,,,,,,0.0-4.0-0.0,,,,,11900,,,17296,,instructions_pt1,4,instructions,"[{'page_index': 0, 'viewing_time': 2415}, {'page_index': 1, 'viewing_time': 1504}, {'page_index': 2, 'viewing_time': 2136}, {'page_index': 3, 'viewing_time': 3436}, {'page_index': 4, 'viewing_time': 2408}]",
982,lc_lc,True,,,,lc_lc,,,j,,,,,,,,,0.0-4.0-1.0-0.0,,,,j,5786,blicket_images/red_pyramid.jpg,,23090,,comprehension_quiz,5,image-keyboard-response,,
982,lc_lc,True,,,,lc_lc,,, ,,,,,,,,,0.0-4.0-1.0-1.0,,,, ,1439,blicket_images/red_pyramid_on.jpg,,24531,,comprehension_quiz,6,image-keyboard-response,,
982,lc_lc,True,,,,lc_lc,,,f,,,,,,,,,0.0-4.0-1.0-2.0,,,,f,2591,blicket_images/purple_prism.jpg,,27123,,comprehension_quiz,7,image-keyboard-response,,
982,lc_lc,True,,,,lc_lc,,, ,,,,,,,,,0.0-4.0-1.0-3.0,,,, ,1062,blicket_images/purple_prism_off.jpg,,28187,,comprehension_quiz,8,image-keyboard-response,,
982,lc_lc,,,,,lc_lc,,,,,,,,,,,,0.0-5.0,,,,,22797,,,50985,,,9,instructions,"[{'page_index': 0, 'viewing_time': 3240}, {'page_index': 1, 'viewing_time': 1310}, {'page_index': 2, 'viewing_time': 708}, {'page_index': 3, 'viewing_time': 1248}, {'page_index': 4, 'viewing_time': 834}, {'page_index': 5, 'viewing_time': 5074}, {'page_index': 6, 'viewing_time': 5316}, {'page_index': 7, 'viewing_time': 4092}, {'page_index': 8, 'viewing_time': 974}]",
982,lc_lc,False,0,,,lc_lc,,f,off,,,,,,,blicket_images/dc.jpg,,0.0-6.0,,,,j,3224,blicket_images/dc.jpg,,54211,,blicket,10,image-keyboard-response,,
982,lc_lc,,,,,lc_lc,,,,,,,,,,blicket_images/dc.jpg,,0.0-7.0,,,, ,2750,blicket_images/dc_off.jpg,,56964,,feedback,11,image-keyboard-response,,
982,lc_lc,True,1,,,lc_lc,,j,on,,,,,,,blicket_images/lc.jpg,,0.0-8.0,,,,j,1559,blicket_images/lc.jpg,,58524,,blicket,12,image-keyboard-response,,
982,lc_lc,,,,,lc_lc,,,,,,,,,,blicket_images/lc.jpg,,0.0-9.0,,,, ,3311,blicket_images/lc_on.jpg,,61836,,feedback,13,image-keyboard-response,,
982,lc_lc,True,1,,,lc_lc,,f,off,,,,,,,blicket_images/dc.jpg,,0.0-10.0,,,,f,2143,blicket_images/dc.jpg,,63981,,blicket,14,image-keyboard-response,,
982,lc_lc,,,,,lc_lc,,,,,,,,,,blicket_images/dc.jpg,,0.0-11.0,,,, ,1149,blicket_images/dc_off.jpg,,65133,,feedback,15,image-keyboard-response,,
982,lc_lc,False,0,,,lc_lc,,f,off,,,,,,,blicket_images/ls.jpg,,0.0-12.0,,,,j,1189,blicket_images/ls.jpg,,66324,,blicket,16,image-keyboard-response,,
982,lc_lc,,,,,lc_lc,,,,,,,,,,blicket_images/ls.jpg,,0.0-13.0,,,, ,2295,blicket_images/ls_off.jpg,,68620,,feedback,17,image-keyboard-response,,
982,lc_lc,False,0,,,lc_lc,,f,off,,,,,,,blicket_images/ds.jpg,,0.0-14.0,,,,j,2191,blicket_images/ds.jpg,,70813,,blicket,18,image-keyboard-response,,
982,lc_lc,,,,,lc_lc,,,,,,,,,,blicket_images/ds.jpg,,0.0-15.0,,,, ,1060,blicket_images/ds_off.jpg,,71875,,feedback,19,image-keyboard-response,,
982,lc_lc,True,1,,,lc_lc,,f,off,,,,,,,blicket_images/ls.jpg,,0.0-16.0,,,,f,1767,blicket_images/ls.jpg,,73645,,blicket,20,image-keyboard-response,,
982,lc_lc,,,,,lc_lc,,,,,,,,,,blicket_images/ls.jpg,,0.0-17.0,,,, ,1012,blicket_images/ls_off.jpg,,74660,,feedback,21,image-keyboard-response,,
982,lc_lc,True,1,,,lc_lc,,f,off,,,,,,,blicket_images/dc.jpg,,0.0-18.0,,,,f,1134,blicket_images/dc.jpg,,75796,,blicket,22,image-keyboard-response,,
982,lc_lc,,,,,lc_lc,,,,,,,,,,blicket_images/dc.jpg,,0.0-19.0,,,, ,943,blicket_images/dc_off.jpg,,76740,,feedback,23,image-keyboard-response,,
982,lc_lc,True,1,,,lc_lc,,f,off,,,,,,,blicket_images/ds.jpg,,0.0-20.0,,,,f,766,blicket_images/ds.jpg,,77508,,blicket,24,image-keyboard-response,,
982,lc_lc,,,,,lc_lc,,,,,,,,,,blicket_images/ds.jpg,,0.0-21.0,,,, ,758,blicket_images/ds_off.jpg,,78268,,feedback,25,image-keyboard-response,,
982,lc_lc,True,1,,,lc_lc,,f,off,,,,,,,blicket_images/dc.jpg,,0.0-22.0,,,,f,880,blicket_images/dc.jpg,,79149,,blicket,26,image-keyboard-response,,
982,lc_lc,,,,,lc_lc,,,,,,,,,,blicket_images/dc.jpg,,0.0-23.0,,,, ,774,blicket_images/dc_off.jpg,,79925,,feedback,27,image-keyboard-response,,
982,lc_lc,True,1,,,lc_lc,,j,on,,,,,,,blicket_images/lc.jpg,,0.0-24.0,,,,j,780,blicket_images/lc.jpg,,80708,,blicket,28,image-keyboard-response,,
982,lc_lc,,,,,lc_lc,,,,,,,,,,blicket_images/lc.jpg,,0.0-25.0,,,, ,1431,blicket_images/lc_on.jpg,,82139,,feedback,29,image-keyboard-response,,
982,lc_lc,True,1,,,lc_lc,,f,off,,,,,,,blicket_images/ls.jpg,,0.0-26.0,,,,f,1120,blicket_images/ls.jpg,,83260,,blicket,30,image-keyboard-response,,
982,lc_lc,,,,,lc_lc,,,,,,,,,,blicket_images/ls.jpg,,0.0-27.0,,,, ,655,blicket_images/ls_off.jpg,,83918,,feedback,31,image-keyboard-response,,
982,lc_lc,True,1,,,lc_lc,,j,on,,,,,,,blicket_images/lc.jpg,,0.0-28.0,,,,j,692,blicket_images/lc.jpg,,84613,,blicket,32,image-keyboard-response,,
982,lc_lc,,,,,lc_lc,,,,,,,,,,blicket_images/lc.jpg,,0.0-29.0,,,, ,613,blicket_images/lc_on.jpg,,85228,,feedback,33,image-keyboard-response,,
982,lc_lc,True,1,,,lc_lc,,f,off,,,,,,,blicket_images/ds.jpg,,0.0-30.0,,,,f,686,blicket_images/ds.jpg,,85916,,blicket,34,image-keyboard-response,,
982,lc_lc,,,,,lc_lc,,,,,,,,,,blicket_images/ds.jpg,,0.0-31.0,,,, ,575,blicket_images/ds_off.jpg,,86493,,feedback,35,image-keyboard-response,,
982,lc_lc,True,1,,,lc_lc,,j,on,,,,,,,blicket_images/lc.jpg,,0.0-32.0,,,,j,803,blicket_images/lc.jpg,,87300,,blicket,36,image-keyboard-response,,
982,lc_lc,,,,,lc_lc,,,,,,,,,,blicket_images/lc.jpg,,0.0-33.0,,,, ,669,blicket_images/lc_on.jpg,,87989,,feedback,37,image-keyboard-response,,
982,lc_lc,True,1,,,lc_lc,,f,off,,,,,,,blicket_images/dc.jpg,,0.0-34.0,,,,f,1122,blicket_images/dc.jpg,,89115,,blicket,38,image-keyboard-response,,
982,lc_lc,,,,,lc_lc,,,,,,,,,,blicket_images/dc.jpg,,0.0-35.0,,,, ,584,blicket_images/dc_off.jpg,,89700,,feedback,39,image-keyboard-response,,
982,lc_lc,True,1,,,lc_lc,,j,on,,,,,,,blicket_images/lc.jpg,,0.0-36.0,,,,j,630,blicket_images/lc.jpg,,90331,,blicket,40,image-keyboard-response,,
982,lc_lc,True,1,,,lc_lc,blicket_images/lc.jpg,,lc,,,,,,,,blicket_images/lc.jpg,0.0-37.0,,,,lc,4504,"Which of these options shows the image from the last trial, that you just saw?",,94838,,pop_quiz,41,html-button-response,,
982,lc_lc,True,1,,,lc_lc,,,['lc'],,,,,,,,,0.0-38.0,,[0],,['lc'],3143,,,97987,,rule_question,42,survey-multi-select,,
982,lc_lc,,,,,lc_lc,,,,,,,,,,,,0.0-39.0,,,,0,2249,"<p>Thank you for participating!</p>You answered 13 out of 16 trials correctly, and will recieve a $0.33 bonus.<p>Now you will complete a short survey before finishing the experiment.</p>",,100240,,,43,html-button-response,,
982,lc_lc,,,54,0.325,lc_lc,,,,Non-Hispanic,,,,"I experimented quickly which each shade and shape to try to find a pattern. But, turns out it was just a single object, so there was no pattern",Male,,,0.0-40.0,0.8125,,White,"{'age': '54', 'race': 'White', 'gender': 'Male', 'feedback': 'I experimented quickly which each shade and shape to try to find a pattern. But, turns out it was just a single object, so there was no pattern', 'ethnicity': 'Non-Hispanic', 'other_race': '', 'other_gender': ''}",46256,,,146497,,exit_survey,44,survey-html-form,,
860,lc_lc,,,,,lc_lc,,,,,[],[],[],,,,,0.0-0.0,,,,,,,True,90,False,,0,preload,,
860,lc_lc,,,,,lc_lc,,,,,[],[],[],,,,,0.0-1.0,,,,,,,True,172,False,,1,preload,,
860,lc_lc,,,,,lc_lc,,,,,,,,,,,,0.0-2.0,,,,,,,True,2704,,,2,fullscreen,,
