workerid,proliferate.condition,accuracy,accuracy_bool,accuracy_finish_line,choices,condition,correct,correct_response,crosses,end_posision,end_position,internal_node_id,question_order,response,rt,selected_position,stimulus,surprise_setup,time_elapsed,trial,trial_index,trial_type,error
1415,4_ramp_yellow,,0,,,4,False,Yes,True,,3,0.0-5.0-0.0,,No,7874,,stimuli/lb_ly_r_first.jpg,,59694,prediction_trial,7,image-button-response,
1415,4_ramp_yellow,,1,,,4,True,Yes,True,,2,0.0-6.0-0.0,,Yes,2891,,stimuli/hr_ly_r_first.jpg,,72973,prediction_trial,10,image-button-response,
1415,4_ramp_yellow,,0,,,4,False,No,False,,1,0.0-7.0-0.0,,Yes,4205,,stimuli/lb_hb_r_first.jpg,,85839,prediction_trial,13,image-button-response,
1415,4_ramp_yellow,,1,,,4,True,No,False,,0,0.0-8.0-0.0,,No,2191,,stimuli/hr_hb_r_first.jpg,,97173,prediction_trial,16,image-button-response,
1415,4_ramp_yellow,False,,False,"['<br><img src=stimuli/b_y_0.jpg style=width:384px></img', '<br><img src=stimuli/b_y_1.jpg style=width:384px></img', '<br><img src=stimuli/b_y_2.jpg style=width:384px></img', '<br><img src=stimuli/b_y_3.jpg style=width:384px></img']",4,,,,3,,0.0-10.0,[0],<br><img src=stimuli/b_y_0.jpg style=width:384px></img,19388,0,,lb_ly_r,128573,surprise_quiz,20,survey-multi-choice,
1415,4_ramp_yellow,False,,False,"['<br><img src=stimuli/r_y_0.jpg style=width:384px></img', '<br><img src=stimuli/r_y_1.jpg style=width:384px></img', '<br><img src=stimuli/r_y_2.jpg style=width:384px></img', '<br><img src=stimuli/r_y_3.jpg style=width:384px></img']",4,,,,2,,0.0-11.0,[0],<br><img src=stimuli/r_y_0.jpg style=width:384px></img,5190,0,,hr_ly_r,133765,surprise_quiz,21,survey-multi-choice,
1415,4_ramp_yellow,False,,False,"['<br><img src=stimuli/b_b_0.jpg style=width:384px></img', '<br><img src=stimuli/b_b_1.jpg style=width:384px></img', '<br><img src=stimuli/b_b_2.jpg style=width:384px></img', '<br><img src=stimuli/b_b_3.jpg style=width:384px></img']",4,,,,1,,0.0-12.0,[0],<br><img src=stimuli/b_b_2.jpg style=width:384px></img,7462,2,,lb_hb_r,141229,surprise_quiz,22,survey-multi-choice,
1415,4_ramp_yellow,False,,True,"['<br><img src=stimuli/r_b_0.jpg style=width:384px></img', '<br><img src=stimuli/r_b_1.jpg style=width:384px></img', '<br><img src=stimuli/r_b_2.jpg style=width:384px></img', '<br><img src=stimuli/r_b_3.jpg style=width:384px></img']",4,,,,0,,0.0-13.0,[0],<br><img src=stimuli/r_b_1.jpg style=width:384px></img,8074,1,,hr_hb_r,149305,surprise_quiz,23,survey-multi-choice,
1243,4_ramp_yellow,,1,,,4,True,Yes,True,,3,0.0-5.0-0.0,,Yes,4722,,stimuli/lb_ly_r_first.jpg,,50864,prediction_trial,7,image-button-response,
1243,4_ramp_yellow,,0,,,4,False,No,False,,1,0.0-6.0-0.0,,Yes,4230,,stimuli/lb_hb_r_first.jpg,,68705,prediction_trial,10,image-button-response,
1243,4_ramp_yellow,,1,,,4,True,Yes,True,,2,0.0-7.0-0.0,,Yes,1527,,stimuli/hr_ly_r_first.jpg,,83723,prediction_trial,13,image-button-response,
1243,4_ramp_yellow,,1,,,4,True,No,False,,0,0.0-8.0-0.0,,No,1543,,stimuli/hr_hb_r_first.jpg,,93631,prediction_trial,16,image-button-response,
1243,4_ramp_yellow,False,,False,"['<br><img src=stimuli/b_y_0.jpg style=width:307.2px></img', '<br><img src=stimuli/b_y_1.jpg style=width:307.2px></img', '<br><img src=stimuli/b_y_2.jpg style=width:307.2px></img', '<br><img src=stimuli/b_y_3.jpg style=width:307.2px></img']",4,,,,3,,0.0-10.0,[0],<br><img src=stimuli/b_y_1.jpg style=width:307.2px></img,7687,1,,lb_ly_r,113029,surprise_quiz,20,survey-multi-choice,
1243,4_ramp_yellow,False,,True,"['<br><img src=stimuli/r_y_0.jpg style=width:307.2px></img', '<br><img src=stimuli/r_y_1.jpg style=width:307.2px></img', '<br><img src=stimuli/r_y_2.jpg style=width:307.2px></img', '<br><img src=stimuli/r_y_3.jpg style=width:307.2px></img']",4,,,,2,,0.0-11.0,[0],<br><img src=stimuli/r_y_3.jpg style=width:307.2px></img,5766,3,,hr_ly_r,118805,surprise_quiz,21,survey-multi-choice,
1243,4_ramp_yellow,False,,False,"['<br><img src=stimuli/r_b_0.jpg style=width:307.2px></img', '<br><img src=stimuli/r_b_1.jpg style=width:307.2px></img', '<br><img src=stimuli/r_b_2.jpg style=width:307.2px></img', '<br><img src=stimuli/r_b_3.jpg style=width:307.2px></img']",4,,,,0,,0.0-12.0,[0],<br><img src=stimuli/r_b_2.jpg style=width:307.2px></img,6285,2,,hr_hb_r,125099,surprise_quiz,22,survey-multi-choice,
1243,4_ramp_yellow,False,,True,"['<br><img src=stimuli/b_b_0.jpg style=width:307.2px></img', '<br><img src=stimuli/b_b_1.jpg style=width:307.2px></img', '<br><img src=stimuli/b_b_2.jpg style=width:307.2px></img', '<br><img src=stimuli/b_b_3.jpg style=width:307.2px></img']",4,,,,1,,0.0-13.0,[0],<br><img src=stimuli/b_b_0.jpg style=width:307.2px></img,4879,0,,lb_hb_r,129986,surprise_quiz,23,survey-multi-choice,
1419,4_ramp_yellow,,0,,,4,False,Yes,True,,2,0.0-5.0-0.0,,No,4660,,stimuli/hr_ly_r_first.jpg,,87720,prediction_trial,7,image-button-response,
1419,4_ramp_yellow,,1,,,4,True,No,False,,0,0.0-6.0-0.0,,No,2324,,stimuli/hr_hb_r_first.jpg,,99649,prediction_trial,10,image-button-response,
1419,4_ramp_yellow,,1,,,4,True,Yes,True,,3,0.0-7.0-0.0,,Yes,934,,stimuli/lb_ly_r_first.jpg,,109963,prediction_trial,13,image-button-response,
1419,4_ramp_yellow,,0,,,4,False,No,False,,1,0.0-8.0-0.0,,Yes,3912,,stimuli/lb_hb_r_first.jpg,,123765,prediction_trial,16,image-button-response,
1419,4_ramp_yellow,True,,True,"['<br><img src=stimuli/b_b_0.jpg style=width:384px></img', '<br><img src=stimuli/b_b_1.jpg style=width:384px></img', '<br><img src=stimuli/b_b_2.jpg style=width:384px></img', '<br><img src=stimuli/b_b_3.jpg style=width:384px></img']",4,,,,1,,0.0-10.0,[0],<br><img src=stimuli/b_b_1.jpg style=width:384px></img,6546,1,,lb_hb_r,150982,surprise_quiz,20,survey-multi-choice,
1419,4_ramp_yellow,False,,True,"['<br><img src=stimuli/b_y_0.jpg style=width:384px></img', '<br><img src=stimuli/b_y_1.jpg style=width:384px></img', '<br><img src=stimuli/b_y_2.jpg style=width:384px></img', '<br><img src=stimuli/b_y_3.jpg style=width:384px></img']",4,,,,3,,0.0-11.0,[0],<br><img src=stimuli/b_y_2.jpg style=width:384px></img,5303,2,,lb_ly_r,156291,surprise_quiz,21,survey-multi-choice,
1419,4_ramp_yellow,True,,True,"['<br><img src=stimuli/r_y_0.jpg style=width:384px></img', '<br><img src=stimuli/r_y_1.jpg style=width:384px></img', '<br><img src=stimuli/r_y_2.jpg style=width:384px></img', '<br><img src=stimuli/r_y_3.jpg style=width:384px></img']",4,,,,2,,0.0-12.0,[0],<br><img src=stimuli/r_y_2.jpg style=width:384px></img,6212,2,,hr_ly_r,162508,surprise_quiz,22,survey-multi-choice,
1419,4_ramp_yellow,False,,False,"['<br><img src=stimuli/r_b_0.jpg style=width:384px></img', '<br><img src=stimuli/r_b_1.jpg style=width:384px></img', '<br><img src=stimuli/r_b_2.jpg style=width:384px></img', '<br><img src=stimuli/r_b_3.jpg style=width:384px></img']",4,,,,0,,0.0-13.0,[0],<br><img src=stimuli/r_b_3.jpg style=width:384px></img,4441,3,,hr_hb_r,166956,surprise_quiz,23,survey-multi-choice,
1364,4_ramp_yellow,,0,,,4,False,No,False,,0,0.0-5.0-0.0,,Yes,4716,,stimuli/hr_hb_r_first.jpg,,59160,prediction_trial,7,image-button-response,
1364,4_ramp_yellow,,1,,,4,True,Yes,True,,2,0.0-6.0-0.0,,Yes,3399,,stimuli/hr_ly_r_first.jpg,,71311,prediction_trial,10,image-button-response,
1364,4_ramp_yellow,,1,,,4,True,No,False,,1,0.0-7.0-0.0,,No,2087,,stimuli/lb_hb_r_first.jpg,,82272,prediction_trial,13,image-button-response,
1364,4_ramp_yellow,,1,,,4,True,Yes,True,,3,0.0-8.0-0.0,,Yes,3615,,stimuli/lb_ly_r_first.jpg,,95087,prediction_trial,16,image-button-response,
1364,4_ramp_yellow,True,,True,"['<br><img src=stimuli/r_y_0.jpg style=width:512px></img', '<br><img src=stimuli/r_y_1.jpg style=width:512px></img', '<br><img src=stimuli/r_y_2.jpg style=width:512px></img', '<br><img src=stimuli/r_y_3.jpg style=width:512px></img']",4,,,,2,,0.0-10.0,[0],<br><img src=stimuli/r_y_2.jpg style=width:512px></img,10239,2,,hr_ly_r,119009,surprise_quiz,20,survey-multi-choice,
1364,4_ramp_yellow,True,,True,"['<br><img src=stimuli/b_y_0.jpg style=width:512px></img', '<br><img src=stimuli/b_y_1.jpg style=width:512px></img', '<br><img src=stimuli/b_y_2.jpg style=width:512px></img', '<br><img src=stimuli/b_y_3.jpg style=width:512px></img']",4,,,,3,,0.0-11.0,[0],<br><img src=stimuli/b_y_3.jpg style=width:512px></img,4422,3,,lb_ly_r,123432,surprise_quiz,21,survey-multi-choice,
1364,4_ramp_yellow,True,,True,"['<br><img src=stimuli/r_b_0.jpg style=width:512px></img', '<br><img src=stimuli/r_b_1.jpg style=width:512px></img', '<br><img src=stimuli/r_b_2.jpg style=width:512px></img', '<br><img src=stimuli/r_b_3.jpg style=width:512px></img']",4,,,,0,,0.0-12.0,[0],<br><img src=stimuli/r_b_0.jpg style=width:512px></img,3415,0,,hr_hb_r,126848,surprise_quiz,22,survey-multi-choice,
1364,4_ramp_yellow,True,,True,"['<br><img src=stimuli/b_b_0.jpg style=width:512px></img', '<br><img src=stimuli/b_b_1.jpg style=width:512px></img', '<br><img src=stimuli/b_b_2.jpg style=width:512px></img', '<br><img src=stimuli/b_b_3.jpg style=width:512px></img']",4,,,,1,,0.0-13.0,[0],<br><img src=stimuli/b_b_1.jpg style=width:512px></img,4511,1,,lb_hb_r,131360,surprise_quiz,23,survey-multi-choice,
1372,4_ramp_yellow,,0,,,4,False,Yes,True,,2,0.0-5.0-0.0,,No,7812,,stimuli/hr_ly_r_first.jpg,,59937,prediction_trial,7,image-button-response,
1372,4_ramp_yellow,,1,,,4,True,Yes,True,,3,0.0-6.0-0.0,,Yes,1979,,stimuli/lb_ly_r_first.jpg,,72035,prediction_trial,10,image-button-response,
1372,4_ramp_yellow,,0,,,4,False,No,False,,0,0.0-7.0-0.0,,Yes,2646,,stimuli/hr_hb_r_first.jpg,,85259,prediction_trial,13,image-button-response,
1372,4_ramp_yellow,,1,,,4,True,No,False,,1,0.0-8.0-0.0,,No,1769,,stimuli/lb_hb_r_first.jpg,,95669,prediction_trial,16,image-button-response,
1372,4_ramp_yellow,False,,False,"['<br><img src=stimuli/b_y_0.jpg style=width:307.2px></img', '<br><img src=stimuli/b_y_1.jpg style=width:307.2px></img', '<br><img src=stimuli/b_y_2.jpg style=width:307.2px></img', '<br><img src=stimuli/b_y_3.jpg style=width:307.2px></img']",4,,,,3,,0.0-10.0,[0],<br><img src=stimuli/b_y_1.jpg style=width:307.2px></img,8052,1,,lb_ly_r,117600,surprise_quiz,20,survey-multi-choice,
1372,4_ramp_yellow,True,,True,"['<br><img src=stimuli/r_b_0.jpg style=width:307.2px></img', '<br><img src=stimuli/r_b_1.jpg style=width:307.2px></img', '<br><img src=stimuli/r_b_2.jpg style=width:307.2px></img', '<br><img src=stimuli/r_b_3.jpg style=width:307.2px></img']",4,,,,0,,0.0-11.0,[0],<br><img src=stimuli/r_b_0.jpg style=width:307.2px></img,7491,0,,hr_hb_r,125099,surprise_quiz,21,survey-multi-choice,
1372,4_ramp_yellow,False,,False,"['<br><img src=stimuli/b_b_0.jpg style=width:307.2px></img', '<br><img src=stimuli/b_b_1.jpg style=width:307.2px></img', '<br><img src=stimuli/b_b_2.jpg style=width:307.2px></img', '<br><img src=stimuli/b_b_3.jpg style=width:307.2px></img']",4,,,,1,,0.0-12.0,[0],<br><img src=stimuli/b_b_3.jpg style=width:307.2px></img,15644,3,,lb_hb_r,140745,surprise_quiz,22,survey-multi-choice,
1372,4_ramp_yellow,True,,True,"['<br><img src=stimuli/r_y_0.jpg style=width:307.2px></img', '<br><img src=stimuli/r_y_1.jpg style=width:307.2px></img', '<br><img src=stimuli/r_y_2.jpg style=width:307.2px></img', '<br><img src=stimuli/r_y_3.jpg style=width:307.2px></img']",4,,,,2,,0.0-13.0,[0],<br><img src=stimuli/r_y_2.jpg style=width:307.2px></img,4190,2,,hr_ly_r,144937,surprise_quiz,23,survey-multi-choice,
1401,4_ramp_yellow,,1,,,4,True,Yes,True,,3,0.0-5.0-0.0,,Yes,4229,,stimuli/lb_ly_r_first.jpg,,57283,prediction_trial,7,image-button-response,
1401,4_ramp_yellow,,1,,,4,True,Yes,True,,2,0.0-6.0-0.0,,Yes,2105,,stimuli/hr_ly_r_first.jpg,,70255,prediction_trial,10,image-button-response,
1401,4_ramp_yellow,,0,,,4,False,No,False,,0,0.0-7.0-0.0,,Yes,3613,,stimuli/hr_hb_r_first.jpg,,82788,prediction_trial,13,image-button-response,
1401,4_ramp_yellow,,0,,,4,False,No,False,,1,0.0-8.0-0.0,,Yes,1578,,stimuli/lb_hb_r_first.jpg,,93001,prediction_trial,16,image-button-response,
1401,4_ramp_yellow,True,,True,"['<br><img src=stimuli/r_b_0.jpg style=width:288px></img', '<br><img src=stimuli/r_b_1.jpg style=width:288px></img', '<br><img src=stimuli/r_b_2.jpg style=width:288px></img', '<br><img src=stimuli/r_b_3.jpg style=width:288px></img']",4,,,,0,,0.0-10.0,[0],<br><img src=stimuli/r_b_0.jpg style=width:288px></img,12462,0,,hr_hb_r,120849,surprise_quiz,20,survey-multi-choice,
1401,4_ramp_yellow,False,,True,"['<br><img src=stimuli/b_y_0.jpg style=width:288px></img', '<br><img src=stimuli/b_y_1.jpg style=width:288px></img', '<br><img src=stimuli/b_y_2.jpg style=width:288px></img', '<br><img src=stimuli/b_y_3.jpg style=width:288px></img']",4,,,,3,,0.0-11.0,[0],<br><img src=stimuli/b_y_2.jpg style=width:288px></img,6908,2,,lb_ly_r,127760,surprise_quiz,21,survey-multi-choice,
1401,4_ramp_yellow,True,,True,"['<br><img src=stimuli/r_y_0.jpg style=width:288px></img', '<br><img src=stimuli/r_y_1.jpg style=width:288px></img', '<br><img src=stimuli/r_y_2.jpg style=width:288px></img', '<br><img src=stimuli/r_y_3.jpg style=width:288px></img']",4,,,,2,,0.0-12.0,[0],<br><img src=stimuli/r_y_2.jpg style=width:288px></img,4841,2,,hr_ly_r,132604,surprise_quiz,22,survey-multi-choice,
1401,4_ramp_yellow,True,,True,"['<br><img src=stimuli/b_b_0.jpg style=width:288px></img', '<br><img src=stimuli/b_b_1.jpg style=width:288px></img', '<br><img src=stimuli/b_b_2.jpg style=width:288px></img', '<br><img src=stimuli/b_b_3.jpg style=width:288px></img']",4,,,,1,,0.0-13.0,[0],<br><img src=stimuli/b_b_1.jpg style=width:288px></img,3655,1,,lb_hb_r,136262,surprise_quiz,23,survey-multi-choice,
1383,4_ramp_yellow,,0,,,4,False,No,False,,1,0.0-5.0-0.0,,Yes,3593,,stimuli/lb_hb_r_first.jpg,,41275,prediction_trial,7,image-button-response,
1383,4_ramp_yellow,,0,,,4,False,Yes,True,,3,0.0-6.0-0.0,,No,1753,,stimuli/lb_ly_r_first.jpg,,52415,prediction_trial,10,image-button-response,
1383,4_ramp_yellow,,1,,,4,True,No,False,,0,0.0-7.0-0.0,,No,1633,,stimuli/hr_hb_r_first.jpg,,63961,prediction_trial,13,image-button-response,
1383,4_ramp_yellow,,1,,,4,True,Yes,True,,2,0.0-8.0-0.0,,Yes,1219,,stimuli/hr_ly_r_first.jpg,,73999,prediction_trial,16,image-button-response,
1383,4_ramp_yellow,True,,True,"['<br><img src=stimuli/r_y_0.jpg style=width:277.8px></img', '<br><img src=stimuli/r_y_1.jpg style=width:277.8px></img', '<br><img src=stimuli/r_y_2.jpg style=width:277.8px></img', '<br><img src=stimuli/r_y_3.jpg style=width:277.8px></img']",4,,,,2,,0.0-10.0,[0],<br><img src=stimuli/r_y_2.jpg style=width:277.8px></img,5867,2,,hr_ly_r,90929,surprise_quiz,20,survey-multi-choice,
1383,4_ramp_yellow,False,,True,"['<br><img src=stimuli/b_y_0.jpg style=width:277.8px></img', '<br><img src=stimuli/b_y_1.jpg style=width:277.8px></img', '<br><img src=stimuli/b_y_2.jpg style=width:277.8px></img', '<br><img src=stimuli/b_y_3.jpg style=width:277.8px></img']",4,,,,3,,0.0-11.0,[0],<br><img src=stimuli/b_y_2.jpg style=width:277.8px></img,3508,2,,lb_ly_r,94446,surprise_quiz,21,survey-multi-choice,
1383,4_ramp_yellow,True,,True,"['<br><img src=stimuli/b_b_0.jpg style=width:277.8px></img', '<br><img src=stimuli/b_b_1.jpg style=width:277.8px></img', '<br><img src=stimuli/b_b_2.jpg style=width:277.8px></img', '<br><img src=stimuli/b_b_3.jpg style=width:277.8px></img']",4,,,,1,,0.0-12.0,[0],<br><img src=stimuli/b_b_1.jpg style=width:277.8px></img,3427,1,,lb_hb_r,97883,surprise_quiz,22,survey-multi-choice,
1383,4_ramp_yellow,False,,True,"['<br><img src=stimuli/r_b_0.jpg style=width:277.8px></img', '<br><img src=stimuli/r_b_1.jpg style=width:277.8px></img', '<br><img src=stimuli/r_b_2.jpg style=width:277.8px></img', '<br><img src=stimuli/r_b_3.jpg style=width:277.8px></img']",4,,,,0,,0.0-13.0,[0],<br><img src=stimuli/r_b_1.jpg style=width:277.8px></img,11563,1,,hr_hb_r,109458,surprise_quiz,23,survey-multi-choice,
1409,4_ramp_yellow,,0,,,4,False,No,False,,1,0.0-5.0-0.0,,Yes,4344,,stimuli/lb_hb_r_first.jpg,,49197,prediction_trial,7,image-button-response,
1409,4_ramp_yellow,,0,,,4,False,No,False,,0,0.0-6.0-0.0,,Yes,2607,,stimuli/hr_hb_r_first.jpg,,65312,prediction_trial,10,image-button-response,
1409,4_ramp_yellow,,1,,,4,True,Yes,True,,3,0.0-7.0-0.0,,Yes,2711,,stimuli/lb_ly_r_first.jpg,,76361,prediction_trial,13,image-button-response,
1409,4_ramp_yellow,,1,,,4,True,Yes,True,,2,0.0-8.0-0.0,,Yes,2449,,stimuli/hr_ly_r_first.jpg,,93678,prediction_trial,16,image-button-response,
1409,4_ramp_yellow,False,,True,"['<br><img src=stimuli/b_b_0.jpg style=width:256px></img', '<br><img src=stimuli/b_b_1.jpg style=width:256px></img', '<br><img src=stimuli/b_b_2.jpg style=width:256px></img', '<br><img src=stimuli/b_b_3.jpg style=width:256px></img']",4,,,,1,,0.0-10.0,[0],<br><img src=stimuli/b_b_0.jpg style=width:256px></img,15183,0,,lb_hb_r,125849,surprise_quiz,20,survey-multi-choice,
1409,4_ramp_yellow,True,,True,"['<br><img src=stimuli/r_y_0.jpg style=width:256px></img', '<br><img src=stimuli/r_y_1.jpg style=width:256px></img', '<br><img src=stimuli/r_y_2.jpg style=width:256px></img', '<br><img src=stimuli/r_y_3.jpg style=width:256px></img']",4,,,,2,,0.0-11.0,[0],<br><img src=stimuli/r_y_2.jpg style=width:256px></img,5869,2,,hr_ly_r,131721,surprise_quiz,21,survey-multi-choice,
1409,4_ramp_yellow,True,,True,"['<br><img src=stimuli/r_b_0.jpg style=width:256px></img', '<br><img src=stimuli/r_b_1.jpg style=width:256px></img', '<br><img src=stimuli/r_b_2.jpg style=width:256px></img', '<br><img src=stimuli/r_b_3.jpg style=width:256px></img']",4,,,,0,,0.0-12.0,[0],<br><img src=stimuli/r_b_0.jpg style=width:256px></img,7107,0,,hr_hb_r,138832,surprise_quiz,22,survey-multi-choice,
1409,4_ramp_yellow,False,,True,"['<br><img src=stimuli/b_y_0.jpg style=width:256px></img', '<br><img src=stimuli/b_y_1.jpg style=width:256px></img', '<br><img src=stimuli/b_y_2.jpg style=width:256px></img', '<br><img src=stimuli/b_y_3.jpg style=width:256px></img']",4,,,,3,,0.0-13.0,[0],<br><img src=stimuli/b_y_2.jpg style=width:256px></img,8340,2,,lb_ly_r,147174,surprise_quiz,23,survey-multi-choice,
1365,4_ramp_yellow,,0,,,4,False,No,False,,1,0.0-5.0-0.0,,Yes,5267,,stimuli/lb_hb_r_first.jpg,,34865,prediction_trial,7,image-button-response,
1365,4_ramp_yellow,,0,,,4,False,No,False,,0,0.0-6.0-0.0,,Yes,1945,,stimuli/hr_hb_r_first.jpg,,45862,prediction_trial,10,image-button-response,
1365,4_ramp_yellow,,0,,,4,False,Yes,True,,3,0.0-7.0-0.0,,No,1884,,stimuli/lb_ly_r_first.jpg,,55702,prediction_trial,13,image-button-response,
1365,4_ramp_yellow,,1,,,4,True,Yes,True,,2,0.0-8.0-0.0,,Yes,2405,,stimuli/hr_ly_r_first.jpg,,66934,prediction_trial,16,image-button-response,
1365,4_ramp_yellow,True,,True,"['<br><img src=stimuli/b_b_0.jpg style=width:384px></img', '<br><img src=stimuli/b_b_1.jpg style=width:384px></img', '<br><img src=stimuli/b_b_2.jpg style=width:384px></img', '<br><img src=stimuli/b_b_3.jpg style=width:384px></img']",4,,,,1,,0.0-10.0,[0],<br><img src=stimuli/b_b_1.jpg style=width:384px></img,4919,1,,lb_hb_r,82541,surprise_quiz,20,survey-multi-choice,
1365,4_ramp_yellow,False,,False,"['<br><img src=stimuli/r_y_0.jpg style=width:384px></img', '<br><img src=stimuli/r_y_1.jpg style=width:384px></img', '<br><img src=stimuli/r_y_2.jpg style=width:384px></img', '<br><img src=stimuli/r_y_3.jpg style=width:384px></img']",4,,,,2,,0.0-11.0,[0],<br><img src=stimuli/r_y_0.jpg style=width:384px></img,2208,0,,hr_ly_r,84751,surprise_quiz,21,survey-multi-choice,
1365,4_ramp_yellow,False,,False,"['<br><img src=stimuli/r_b_0.jpg style=width:384px></img', '<br><img src=stimuli/r_b_1.jpg style=width:384px></img', '<br><img src=stimuli/r_b_2.jpg style=width:384px></img', '<br><img src=stimuli/r_b_3.jpg style=width:384px></img']",4,,,,0,,0.0-12.0,[0],<br><img src=stimuli/r_b_2.jpg style=width:384px></img,2901,2,,hr_hb_r,87654,surprise_quiz,22,survey-multi-choice,
1365,4_ramp_yellow,True,,True,"['<br><img src=stimuli/b_y_0.jpg style=width:384px></img', '<br><img src=stimuli/b_y_1.jpg style=width:384px></img', '<br><img src=stimuli/b_y_2.jpg style=width:384px></img', '<br><img src=stimuli/b_y_3.jpg style=width:384px></img']",4,,,,3,,0.0-13.0,[0],<br><img src=stimuli/b_y_3.jpg style=width:384px></img,1880,3,,lb_ly_r,89536,surprise_quiz,23,survey-multi-choice,
1393,4_ramp_yellow,,1,,,4,True,No,False,,0,0.0-5.0-0.0,,No,6123,,stimuli/hr_hb_r_first.jpg,,93872,prediction_trial,7,image-button-response,
1393,4_ramp_yellow,,0,,,4,False,No,False,,1,0.0-6.0-0.0,,Yes,6250,,stimuli/lb_hb_r_first.jpg,,109629,prediction_trial,10,image-button-response,
1393,4_ramp_yellow,,0,,,4,False,Yes,True,,2,0.0-7.0-0.0,,No,4389,,stimuli/hr_ly_r_first.jpg,,123989,prediction_trial,13,image-button-response,
1393,4_ramp_yellow,,0,,,4,False,Yes,True,,3,0.0-8.0-0.0,,No,3607,,stimuli/lb_ly_r_first.jpg,,136707,prediction_trial,16,image-button-response,
1393,4_ramp_yellow,True,,True,"['<br><img src=stimuli/r_y_0.jpg style=width:256px></img', '<br><img src=stimuli/r_y_1.jpg style=width:256px></img', '<br><img src=stimuli/r_y_2.jpg style=width:256px></img', '<br><img src=stimuli/r_y_3.jpg style=width:256px></img']",4,,,,2,,0.0-10.0,[0],<br><img src=stimuli/r_y_2.jpg style=width:256px></img,14041,2,,hr_ly_r,167536,surprise_quiz,20,survey-multi-choice,
1393,4_ramp_yellow,False,,False,"['<br><img src=stimuli/r_b_0.jpg style=width:256px></img', '<br><img src=stimuli/r_b_1.jpg style=width:256px></img', '<br><img src=stimuli/r_b_2.jpg style=width:256px></img', '<br><img src=stimuli/r_b_3.jpg style=width:256px></img']",4,,,,0,,0.0-11.0,[0],<br><img src=stimuli/r_b_3.jpg style=width:256px></img,14171,3,,hr_hb_r,181715,surprise_quiz,21,survey-multi-choice,
1393,4_ramp_yellow,False,,True,"['<br><img src=stimuli/b_b_0.jpg style=width:256px></img', '<br><img src=stimuli/b_b_1.jpg style=width:256px></img', '<br><img src=stimuli/b_b_2.jpg style=width:256px></img', '<br><img src=stimuli/b_b_3.jpg style=width:256px></img']",4,,,,1,,0.0-12.0,[0],<br><img src=stimuli/b_b_0.jpg style=width:256px></img,6523,0,,lb_hb_r,188241,surprise_quiz,22,survey-multi-choice,
1393,4_ramp_yellow,False,,True,"['<br><img src=stimuli/b_y_0.jpg style=width:256px></img', '<br><img src=stimuli/b_y_1.jpg style=width:256px></img', '<br><img src=stimuli/b_y_2.jpg style=width:256px></img', '<br><img src=stimuli/b_y_3.jpg style=width:256px></img']",4,,,,3,,0.0-13.0,[0],<br><img src=stimuli/b_y_2.jpg style=width:256px></img,5609,2,,lb_ly_r,193852,surprise_quiz,23,survey-multi-choice,
1371,4_ramp_yellow,,1,,,4,True,No,False,,1,0.0-5.0-0.0,,No,4276,,stimuli/lb_hb_r_first.jpg,,92768,prediction_trial,7,image-button-response,
1371,4_ramp_yellow,,1,,,4,True,Yes,True,,2,0.0-6.0-0.0,,Yes,1217,,stimuli/hr_ly_r_first.jpg,,105794,prediction_trial,10,image-button-response,
1371,4_ramp_yellow,,0,,,4,False,No,False,,0,0.0-7.0-0.0,,Yes,3035,,stimuli/hr_hb_r_first.jpg,,120038,prediction_trial,13,image-button-response,
1371,4_ramp_yellow,,1,,,4,True,Yes,True,,3,0.0-8.0-0.0,,Yes,2218,,stimuli/lb_ly_r_first.jpg,,130922,prediction_trial,16,image-button-response,
1371,4_ramp_yellow,False,,True,"['<br><img src=stimuli/b_y_0.jpg style=width:288px></img', '<br><img src=stimuli/b_y_1.jpg style=width:288px></img', '<br><img src=stimuli/b_y_2.jpg style=width:288px></img', '<br><img src=stimuli/b_y_3.jpg style=width:288px></img']",4,,,,3,,0.0-10.0,[0],<br><img src=stimuli/b_y_2.jpg style=width:288px></img,5722,2,,lb_ly_r,149908,surprise_quiz,20,survey-multi-choice,
1371,4_ramp_yellow,True,,True,"['<br><img src=stimuli/r_y_0.jpg style=width:288px></img', '<br><img src=stimuli/r_y_1.jpg style=width:288px></img', '<br><img src=stimuli/r_y_2.jpg style=width:288px></img', '<br><img src=stimuli/r_y_3.jpg style=width:288px></img']",4,,,,2,,0.0-11.0,[0],<br><img src=stimuli/r_y_2.jpg style=width:288px></img,2918,2,,hr_ly_r,152828,surprise_quiz,21,survey-multi-choice,
1371,4_ramp_yellow,False,,True,"['<br><img src=stimuli/b_b_0.jpg style=width:288px></img', '<br><img src=stimuli/b_b_1.jpg style=width:288px></img', '<br><img src=stimuli/b_b_2.jpg style=width:288px></img', '<br><img src=stimuli/b_b_3.jpg style=width:288px></img']",4,,,,1,,0.0-12.0,[0],<br><img src=stimuli/b_b_0.jpg style=width:288px></img,2680,0,,lb_hb_r,155510,surprise_quiz,22,survey-multi-choice,
1371,4_ramp_yellow,True,,True,"['<br><img src=stimuli/r_b_0.jpg style=width:288px></img', '<br><img src=stimuli/r_b_1.jpg style=width:288px></img', '<br><img src=stimuli/r_b_2.jpg style=width:288px></img', '<br><img src=stimuli/r_b_3.jpg style=width:288px></img']",4,,,,0,,0.0-13.0,[0],<br><img src=stimuli/r_b_0.jpg style=width:288px></img,3562,0,,hr_hb_r,159075,surprise_quiz,23,survey-multi-choice,
1391,4_ramp_yellow,,1,,,4,True,Yes,True,,3,0.0-5.0-0.0,,Yes,5931,,stimuli/lb_ly_r_first.jpg,,48760,prediction_trial,7,image-button-response,
1391,4_ramp_yellow,,1,,,4,True,Yes,True,,2,0.0-6.0-0.0,,Yes,3329,,stimuli/hr_ly_r_first.jpg,,61877,prediction_trial,10,image-button-response,
1391,4_ramp_yellow,,0,,,4,False,No,False,,1,0.0-7.0-0.0,,Yes,2295,,stimuli/lb_hb_r_first.jpg,,76403,prediction_trial,13,image-button-response,
1391,4_ramp_yellow,,1,,,4,True,No,False,,0,0.0-8.0-0.0,,No,2633,,stimuli/hr_hb_r_first.jpg,,88003,prediction_trial,16,image-button-response,
1391,4_ramp_yellow,False,,False,"['<br><img src=stimuli/r_y_0.jpg style=width:273.2px></img', '<br><img src=stimuli/r_y_1.jpg style=width:273.2px></img', '<br><img src=stimuli/r_y_2.jpg style=width:273.2px></img', '<br><img src=stimuli/r_y_3.jpg style=width:273.2px></img']",4,,,,2,,0.0-10.0,[0],<br><img src=stimuli/r_y_1.jpg style=width:273.2px></img,7579,1,,hr_ly_r,107346,surprise_quiz,20,survey-multi-choice,
1391,4_ramp_yellow,True,,True,"['<br><img src=stimuli/r_b_0.jpg style=width:273.2px></img', '<br><img src=stimuli/r_b_1.jpg style=width:273.2px></img', '<br><img src=stimuli/r_b_2.jpg style=width:273.2px></img', '<br><img src=stimuli/r_b_3.jpg style=width:273.2px></img']",4,,,,0,,0.0-11.0,[0],<br><img src=stimuli/r_b_0.jpg style=width:273.2px></img,3513,0,,hr_hb_r,110862,surprise_quiz,21,survey-multi-choice,
1391,4_ramp_yellow,False,,True,"['<br><img src=stimuli/b_y_0.jpg style=width:273.2px></img', '<br><img src=stimuli/b_y_1.jpg style=width:273.2px></img', '<br><img src=stimuli/b_y_2.jpg style=width:273.2px></img', '<br><img src=stimuli/b_y_3.jpg style=width:273.2px></img']",4,,,,3,,0.0-12.0,[0],<br><img src=stimuli/b_y_2.jpg style=width:273.2px></img,3311,2,,lb_ly_r,114176,surprise_quiz,22,survey-multi-choice,
1391,4_ramp_yellow,False,,False,"['<br><img src=stimuli/b_b_0.jpg style=width:273.2px></img', '<br><img src=stimuli/b_b_1.jpg style=width:273.2px></img', '<br><img src=stimuli/b_b_2.jpg style=width:273.2px></img', '<br><img src=stimuli/b_b_3.jpg style=width:273.2px></img']",4,,,,1,,0.0-13.0,[0],<br><img src=stimuli/b_b_3.jpg style=width:273.2px></img,2277,3,,lb_hb_r,116456,surprise_quiz,23,survey-multi-choice,
1375,4_ramp_yellow,,1,,,4,True,Yes,True,,3,0.0-5.0-0.0,,Yes,2824,,stimuli/lb_ly_r_first.jpg,,48090,prediction_trial,7,image-button-response,
1375,4_ramp_yellow,,0,,,4,False,No,False,,1,0.0-6.0-0.0,,Yes,1671,,stimuli/lb_hb_r_first.jpg,,59209,prediction_trial,10,image-button-response,
1375,4_ramp_yellow,,1,,,4,True,Yes,True,,2,0.0-7.0-0.0,,Yes,1847,,stimuli/hr_ly_r_first.jpg,,70210,prediction_trial,13,image-button-response,
1375,4_ramp_yellow,,1,,,4,True,No,False,,0,0.0-8.0-0.0,,No,1295,,stimuli/hr_hb_r_first.jpg,,79569,prediction_trial,16,image-button-response,
1375,4_ramp_yellow,True,,True,"['<br><img src=stimuli/r_b_0.jpg style=width:320px></img', '<br><img src=stimuli/r_b_1.jpg style=width:320px></img', '<br><img src=stimuli/r_b_2.jpg style=width:320px></img', '<br><img src=stimuli/r_b_3.jpg style=width:320px></img']",4,,,,0,,0.0-10.0,[0],<br><img src=stimuli/r_b_0.jpg style=width:320px></img,7119,0,,hr_hb_r,97994,surprise_quiz,20,survey-multi-choice,
1375,4_ramp_yellow,True,,True,"['<br><img src=stimuli/r_y_0.jpg style=width:320px></img', '<br><img src=stimuli/r_y_1.jpg style=width:320px></img', '<br><img src=stimuli/r_y_2.jpg style=width:320px></img', '<br><img src=stimuli/r_y_3.jpg style=width:320px></img']",4,,,,2,,0.0-11.0,[0],<br><img src=stimuli/r_y_2.jpg style=width:320px></img,4118,2,,hr_ly_r,102113,surprise_quiz,21,survey-multi-choice,
1375,4_ramp_yellow,True,,True,"['<br><img src=stimuli/b_b_0.jpg style=width:320px></img', '<br><img src=stimuli/b_b_1.jpg style=width:320px></img', '<br><img src=stimuli/b_b_2.jpg style=width:320px></img', '<br><img src=stimuli/b_b_3.jpg style=width:320px></img']",4,,,,1,,0.0-12.0,[0],<br><img src=stimuli/b_b_1.jpg style=width:320px></img,4647,1,,lb_hb_r,106761,surprise_quiz,22,survey-multi-choice,
1375,4_ramp_yellow,True,,True,"['<br><img src=stimuli/b_y_0.jpg style=width:320px></img', '<br><img src=stimuli/b_y_1.jpg style=width:320px></img', '<br><img src=stimuli/b_y_2.jpg style=width:320px></img', '<br><img src=stimuli/b_y_3.jpg style=width:320px></img']",4,,,,3,,0.0-13.0,[0],<br><img src=stimuli/b_y_3.jpg style=width:320px></img,5431,3,,lb_ly_r,112193,surprise_quiz,23,survey-multi-choice,
1397,4_ramp_yellow,,0,,,4,False,Yes,True,,3,0.0-5.0-0.0,,No,5206,,stimuli/lb_ly_r_first.jpg,,50201,prediction_trial,7,image-button-response,
1397,4_ramp_yellow,,1,,,4,True,No,False,,0,0.0-6.0-0.0,,No,3292,,stimuli/hr_hb_r_first.jpg,,63039,prediction_trial,10,image-button-response,
1397,4_ramp_yellow,,1,,,4,True,Yes,True,,2,0.0-7.0-0.0,,Yes,1491,,stimuli/hr_ly_r_first.jpg,,73238,prediction_trial,13,image-button-response,
1397,4_ramp_yellow,,1,,,4,True,No,False,,1,0.0-8.0-0.0,,No,1214,,stimuli/lb_hb_r_first.jpg,,82884,prediction_trial,16,image-button-response,
1397,4_ramp_yellow,False,,True,"['<br><img src=stimuli/r_b_0.jpg style=width:307.2px></img', '<br><img src=stimuli/r_b_1.jpg style=width:307.2px></img', '<br><img src=stimuli/r_b_2.jpg style=width:307.2px></img', '<br><img src=stimuli/r_b_3.jpg style=width:307.2px></img']",4,,,,0,,0.0-10.0,[0],<br><img src=stimuli/r_b_1.jpg style=width:307.2px></img,8403,1,,hr_hb_r,106540,surprise_quiz,20,survey-multi-choice,
1397,4_ramp_yellow,True,,True,"['<br><img src=stimuli/r_y_0.jpg style=width:307.2px></img', '<br><img src=stimuli/r_y_1.jpg style=width:307.2px></img', '<br><img src=stimuli/r_y_2.jpg style=width:307.2px></img', '<br><img src=stimuli/r_y_3.jpg style=width:307.2px></img']",4,,,,2,,0.0-11.0,[0],<br><img src=stimuli/r_y_2.jpg style=width:307.2px></img,7330,2,,hr_ly_r,113872,surprise_quiz,21,survey-multi-choice,
1397,4_ramp_yellow,True,,True,"['<br><img src=stimuli/b_b_0.jpg style=width:307.2px></img', '<br><img src=stimuli/b_b_1.jpg style=width:307.2px></img', '<br><img src=stimuli/b_b_2.jpg style=width:307.2px></img', '<br><img src=stimuli/b_b_3.jpg style=width:307.2px></img']",4,,,,1,,0.0-12.0,[0],<br><img src=stimuli/b_b_1.jpg style=width:307.2px></img,4272,1,,lb_hb_r,118145,surprise_quiz,22,survey-multi-choice,
1397,4_ramp_yellow,True,,True,"['<br><img src=stimuli/b_y_0.jpg style=width:307.2px></img', '<br><img src=stimuli/b_y_1.jpg style=width:307.2px></img', '<br><img src=stimuli/b_y_2.jpg style=width:307.2px></img', '<br><img src=stimuli/b_y_3.jpg style=width:307.2px></img']",4,,,,3,,0.0-13.0,[0],<br><img src=stimuli/b_y_3.jpg style=width:307.2px></img,4549,3,,lb_ly_r,122696,surprise_quiz,23,survey-multi-choice,
1405,4_ramp_yellow,,0,,,4,False,No,False,,1,0.0-5.0-0.0,,Yes,2653,,stimuli/lb_hb_r_first.jpg,,38569,prediction_trial,7,image-button-response,
1405,4_ramp_yellow,,1,,,4,True,No,False,,0,0.0-6.0-0.0,,No,2813,,stimuli/hr_hb_r_first.jpg,,50680,prediction_trial,10,image-button-response,
1405,4_ramp_yellow,,1,,,4,True,Yes,True,,2,0.0-7.0-0.0,,Yes,2138,,stimuli/hr_ly_r_first.jpg,,61355,prediction_trial,13,image-button-response,
1405,4_ramp_yellow,,1,,,4,True,Yes,True,,3,0.0-8.0-0.0,,Yes,1999,,stimuli/lb_ly_r_first.jpg,,71271,prediction_trial,16,image-button-response,
1405,4_ramp_yellow,True,,True,"['<br><img src=stimuli/r_b_0.jpg style=width:288px></img', '<br><img src=stimuli/r_b_1.jpg style=width:288px></img', '<br><img src=stimuli/r_b_2.jpg style=width:288px></img', '<br><img src=stimuli/r_b_3.jpg style=width:288px></img']",4,,,,0,,0.0-10.0,[0],<br><img src=stimuli/r_b_0.jpg style=width:288px></img,8188,0,,hr_hb_r,92781,surprise_quiz,20,survey-multi-choice,
1405,4_ramp_yellow,False,,True,"['<br><img src=stimuli/b_b_0.jpg style=width:288px></img', '<br><img src=stimuli/b_b_1.jpg style=width:288px></img', '<br><img src=stimuli/b_b_2.jpg style=width:288px></img', '<br><img src=stimuli/b_b_3.jpg style=width:288px></img']",4,,,,1,,0.0-11.0,[0],<br><img src=stimuli/b_b_0.jpg style=width:288px></img,4906,0,,lb_hb_r,97691,surprise_quiz,21,survey-multi-choice,
1405,4_ramp_yellow,False,,True,"['<br><img src=stimuli/r_y_0.jpg style=width:288px></img', '<br><img src=stimuli/r_y_1.jpg style=width:288px></img', '<br><img src=stimuli/r_y_2.jpg style=width:288px></img', '<br><img src=stimuli/r_y_3.jpg style=width:288px></img']",4,,,,2,,0.0-12.0,[0],<br><img src=stimuli/r_y_3.jpg style=width:288px></img,8390,3,,hr_ly_r,106085,surprise_quiz,22,survey-multi-choice,
1405,4_ramp_yellow,True,,True,"['<br><img src=stimuli/b_y_0.jpg style=width:288px></img', '<br><img src=stimuli/b_y_1.jpg style=width:288px></img', '<br><img src=stimuli/b_y_2.jpg style=width:288px></img', '<br><img src=stimuli/b_y_3.jpg style=width:288px></img']",4,,,,3,,0.0-13.0,[0],<br><img src=stimuli/b_y_3.jpg style=width:288px></img,3274,3,,lb_ly_r,109364,surprise_quiz,23,survey-multi-choice,
1381,4_ramp_yellow,,1,,,4,True,No,False,,1,0.0-5.0-0.0,,No,5822,,stimuli/lb_hb_r_first.jpg,,131932,prediction_trial,7,image-button-response,
1381,4_ramp_yellow,,1,,,4,True,No,False,,0,0.0-6.0-0.0,,No,4887,,stimuli/hr_hb_r_first.jpg,,148722,prediction_trial,10,image-button-response,
1381,4_ramp_yellow,,0,,,4,False,Yes,True,,2,0.0-7.0-0.0,,No,4428,,stimuli/hr_ly_r_first.jpg,,163077,prediction_trial,13,image-button-response,
1381,4_ramp_yellow,,0,,,4,False,Yes,True,,3,0.0-8.0-0.0,,No,4340,,stimuli/lb_ly_r_first.jpg,,178165,prediction_trial,16,image-button-response,
1381,4_ramp_yellow,True,,True,"['<br><img src=stimuli/r_y_0.jpg style=width:273.2px></img', '<br><img src=stimuli/r_y_1.jpg style=width:273.2px></img', '<br><img src=stimuli/r_y_2.jpg style=width:273.2px></img', '<br><img src=stimuli/r_y_3.jpg style=width:273.2px></img']",4,,,,2,,0.0-10.0,[0],<br><img src=stimuli/r_y_2.jpg style=width:273.2px></img,12788,2,,hr_ly_r,212176,surprise_quiz,20,survey-multi-choice,
1381,4_ramp_yellow,False,,False,"['<br><img src=stimuli/b_b_0.jpg style=width:273.2px></img', '<br><img src=stimuli/b_b_1.jpg style=width:273.2px></img', '<br><img src=stimuli/b_b_2.jpg style=width:273.2px></img', '<br><img src=stimuli/b_b_3.jpg style=width:273.2px></img']",4,,,,1,,0.0-11.0,[0],<br><img src=stimuli/b_b_2.jpg style=width:273.2px></img,3578,2,,lb_hb_r,215771,surprise_quiz,21,survey-multi-choice,
1381,4_ramp_yellow,False,,False,"['<br><img src=stimuli/r_b_0.jpg style=width:273.2px></img', '<br><img src=stimuli/r_b_1.jpg style=width:273.2px></img', '<br><img src=stimuli/r_b_2.jpg style=width:273.2px></img', '<br><img src=stimuli/r_b_3.jpg style=width:273.2px></img']",4,,,,0,,0.0-12.0,[0],<br><img src=stimuli/r_b_2.jpg style=width:273.2px></img,8805,2,,hr_hb_r,224593,surprise_quiz,22,survey-multi-choice,
1381,4_ramp_yellow,False,,False,"['<br><img src=stimuli/b_y_0.jpg style=width:273.2px></img', '<br><img src=stimuli/b_y_1.jpg style=width:273.2px></img', '<br><img src=stimuli/b_y_2.jpg style=width:273.2px></img', '<br><img src=stimuli/b_y_3.jpg style=width:273.2px></img']",4,,,,3,,0.0-13.0,[0],<br><img src=stimuli/b_y_1.jpg style=width:273.2px></img,3306,1,,lb_ly_r,227916,surprise_quiz,23,survey-multi-choice,
1385,4_ramp_yellow,,0,,,4,False,No,False,,0,0.0-5.0-0.0,,Yes,3689,,stimuli/hr_hb_r_first.jpg,,60838,prediction_trial,11,image-button-response,
1385,4_ramp_yellow,,0,,,4,False,No,False,,1,0.0-6.0-0.0,,Yes,2122,,stimuli/lb_hb_r_first.jpg,,72107,prediction_trial,14,image-button-response,
1385,4_ramp_yellow,,0,,,4,False,Yes,True,,2,0.0-7.0-0.0,,No,1688,,stimuli/hr_ly_r_first.jpg,,83293,prediction_trial,17,image-button-response,
1385,4_ramp_yellow,,1,,,4,True,Yes,True,,3,0.0-8.0-0.0,,Yes,1525,,stimuli/lb_ly_r_first.jpg,,93497,prediction_trial,20,image-button-response,
1385,4_ramp_yellow,False,,False,"['<br><img src=stimuli/r_y_0.jpg style=width:75px></img', '<br><img src=stimuli/r_y_1.jpg style=width:75px></img', '<br><img src=stimuli/r_y_2.jpg style=width:75px></img', '<br><img src=stimuli/r_y_3.jpg style=width:75px></img']",4,,,,2,,0.0-10.0,[0],<br><img src=stimuli/r_y_0.jpg style=width:75px></img,8448,0,,hr_ly_r,112220,surprise_quiz,24,survey-multi-choice,
1385,4_ramp_yellow,False,,False,"['<br><img src=stimuli/r_b_0.jpg style=width:75px></img', '<br><img src=stimuli/r_b_1.jpg style=width:75px></img', '<br><img src=stimuli/r_b_2.jpg style=width:75px></img', '<br><img src=stimuli/r_b_3.jpg style=width:75px></img']",4,,,,0,,0.0-11.0,[0],<br><img src=stimuli/r_b_3.jpg style=width:75px></img,5777,3,,hr_hb_r,118002,surprise_quiz,25,survey-multi-choice,
1385,4_ramp_yellow,False,,False,"['<br><img src=stimuli/b_b_0.jpg style=width:75px></img', '<br><img src=stimuli/b_b_1.jpg style=width:75px></img', '<br><img src=stimuli/b_b_2.jpg style=width:75px></img', '<br><img src=stimuli/b_b_3.jpg style=width:75px></img']",4,,,,1,,0.0-12.0,[0],<br><img src=stimuli/b_b_2.jpg style=width:75px></img,4513,2,,lb_hb_r,122520,surprise_quiz,26,survey-multi-choice,
1385,4_ramp_yellow,False,,True,"['<br><img src=stimuli/b_y_0.jpg style=width:75px></img', '<br><img src=stimuli/b_y_1.jpg style=width:75px></img', '<br><img src=stimuli/b_y_2.jpg style=width:75px></img', '<br><img src=stimuli/b_y_3.jpg style=width:75px></img']",4,,,,3,,0.0-13.0,[0],<br><img src=stimuli/b_y_2.jpg style=width:75px></img,2496,2,,lb_ly_r,125020,surprise_quiz,27,survey-multi-choice,
1420,4_ramp_yellow,,0,,,4,False,Yes,True,,3,0.0-5.0-0.0,,No,9975,,stimuli/lb_ly_r_first.jpg,,413113,prediction_trial,7,image-button-response,
1420,4_ramp_yellow,,1,,,4,True,Yes,True,,2,0.0-6.0-0.0,,Yes,2223,,stimuli/hr_ly_r_first.jpg,,429782,prediction_trial,10,image-button-response,
1420,4_ramp_yellow,,0,,,4,False,No,False,,1,0.0-7.0-0.0,,Yes,2421,,stimuli/lb_hb_r_first.jpg,,447093,prediction_trial,13,image-button-response,
1420,4_ramp_yellow,,0,,,4,False,No,False,,0,0.0-8.0-0.0,,Yes,1126,,stimuli/hr_hb_r_first.jpg,,458518,prediction_trial,16,image-button-response,
1420,4_ramp_yellow,False,,True,"['<br><img src=stimuli/b_y_0.jpg style=width:384px></img', '<br><img src=stimuli/b_y_1.jpg style=width:384px></img', '<br><img src=stimuli/b_y_2.jpg style=width:384px></img', '<br><img src=stimuli/b_y_3.jpg style=width:384px></img']",4,,,,3,,0.0-10.0,[0],<br><img src=stimuli/b_y_2.jpg style=width:384px></img,7148,2,,lb_ly_r,482894,surprise_quiz,20,survey-multi-choice,
1420,4_ramp_yellow,False,,True,"['<br><img src=stimuli/r_b_0.jpg style=width:384px></img', '<br><img src=stimuli/r_b_1.jpg style=width:384px></img', '<br><img src=stimuli/r_b_2.jpg style=width:384px></img', '<br><img src=stimuli/r_b_3.jpg style=width:384px></img']",4,,,,0,,0.0-11.0,[0],<br><img src=stimuli/r_b_1.jpg style=width:384px></img,3439,1,,hr_hb_r,486336,surprise_quiz,21,survey-multi-choice,
1420,4_ramp_yellow,False,,False,"['<br><img src=stimuli/r_y_0.jpg style=width:384px></img', '<br><img src=stimuli/r_y_1.jpg style=width:384px></img', '<br><img src=stimuli/r_y_2.jpg style=width:384px></img', '<br><img src=stimuli/r_y_3.jpg style=width:384px></img']",4,,,,2,,0.0-12.0,[0],<br><img src=stimuli/r_y_1.jpg style=width:384px></img,3093,1,,hr_ly_r,489432,surprise_quiz,22,survey-multi-choice,
1420,4_ramp_yellow,False,,False,"['<br><img src=stimuli/b_b_0.jpg style=width:384px></img', '<br><img src=stimuli/b_b_1.jpg style=width:384px></img', '<br><img src=stimuli/b_b_2.jpg style=width:384px></img', '<br><img src=stimuli/b_b_3.jpg style=width:384px></img']",4,,,,1,,0.0-13.0,[0],<br><img src=stimuli/b_b_2.jpg style=width:384px></img,2871,2,,lb_hb_r,492306,surprise_quiz,23,survey-multi-choice,
1379,4_ramp_yellow,,0,,,4,False,No,False,,0,0.0-5.0-0.0,,Yes,3260,,stimuli/hr_hb_r_first.jpg,,44180,prediction_trial,7,image-button-response,
1379,4_ramp_yellow,,1,,,4,True,Yes,True,,3,0.0-6.0-0.0,,Yes,1290,,stimuli/lb_ly_r_first.jpg,,54218,prediction_trial,10,image-button-response,
1379,4_ramp_yellow,,1,,,4,True,Yes,True,,2,0.0-7.0-0.0,,Yes,2558,,stimuli/hr_ly_r_first.jpg,,66300,prediction_trial,13,image-button-response,
1379,4_ramp_yellow,,1,,,4,True,No,False,,1,0.0-8.0-0.0,,No,1009,,stimuli/lb_hb_r_first.jpg,,75338,prediction_trial,16,image-button-response,
1379,4_ramp_yellow,False,,False,"['<br><img src=stimuli/r_y_0.jpg style=width:307.2px></img', '<br><img src=stimuli/r_y_1.jpg style=width:307.2px></img', '<br><img src=stimuli/r_y_2.jpg style=width:307.2px></img', '<br><img src=stimuli/r_y_3.jpg style=width:307.2px></img']",4,,,,2,,0.0-10.0,[0],<br><img src=stimuli/r_y_0.jpg style=width:307.2px></img,7044,0,,hr_ly_r,97101,surprise_quiz,20,survey-multi-choice,
1379,4_ramp_yellow,False,,False,"['<br><img src=stimuli/b_y_0.jpg style=width:307.2px></img', '<br><img src=stimuli/b_y_1.jpg style=width:307.2px></img', '<br><img src=stimuli/b_y_2.jpg style=width:307.2px></img', '<br><img src=stimuli/b_y_3.jpg style=width:307.2px></img']",4,,,,3,,0.0-11.0,[0],<br><img src=stimuli/b_y_1.jpg style=width:307.2px></img,4768,1,,lb_ly_r,101872,surprise_quiz,21,survey-multi-choice,
1379,4_ramp_yellow,False,,False,"['<br><img src=stimuli/b_b_0.jpg style=width:307.2px></img', '<br><img src=stimuli/b_b_1.jpg style=width:307.2px></img', '<br><img src=stimuli/b_b_2.jpg style=width:307.2px></img', '<br><img src=stimuli/b_b_3.jpg style=width:307.2px></img']",4,,,,1,,0.0-12.0,[0],<br><img src=stimuli/b_b_3.jpg style=width:307.2px></img,10248,3,,lb_hb_r,112122,surprise_quiz,22,survey-multi-choice,
1379,4_ramp_yellow,False,,False,"['<br><img src=stimuli/r_b_0.jpg style=width:307.2px></img', '<br><img src=stimuli/r_b_1.jpg style=width:307.2px></img', '<br><img src=stimuli/r_b_2.jpg style=width:307.2px></img', '<br><img src=stimuli/r_b_3.jpg style=width:307.2px></img']",4,,,,0,,0.0-13.0,[0],<br><img src=stimuli/r_b_2.jpg style=width:307.2px></img,1807,2,,hr_hb_r,113932,surprise_quiz,23,survey-multi-choice,
1412,4_ramp_yellow,,0,,,4,False,No,False,,0,0.0-5.0-0.0,,Yes,3027,,stimuli/hr_hb_r_first.jpg,,35205,prediction_trial,7,image-button-response,
1412,4_ramp_yellow,,1,,,4,True,Yes,True,,2,0.0-6.0-0.0,,Yes,1066,,stimuli/hr_ly_r_first.jpg,,44573,prediction_trial,10,image-button-response,
1412,4_ramp_yellow,,1,,,4,True,Yes,True,,3,0.0-7.0-0.0,,Yes,1216,,stimuli/lb_ly_r_first.jpg,,53974,prediction_trial,13,image-button-response,
1412,4_ramp_yellow,,1,,,4,True,No,False,,1,0.0-8.0-0.0,,No,877,,stimuli/lb_hb_r_first.jpg,,63820,prediction_trial,16,image-button-response,
1412,4_ramp_yellow,False,,True,"['<br><img src=stimuli/b_y_0.jpg style=width:294px></img', '<br><img src=stimuli/b_y_1.jpg style=width:294px></img', '<br><img src=stimuli/b_y_2.jpg style=width:294px></img', '<br><img src=stimuli/b_y_3.jpg style=width:294px></img']",4,,,,3,,0.0-10.0,[0],<br><img src=stimuli/b_y_2.jpg style=width:294px></img,9092,2,,lb_ly_r,83329,surprise_quiz,20,survey-multi-choice,
1412,4_ramp_yellow,False,,True,"['<br><img src=stimuli/r_y_0.jpg style=width:294px></img', '<br><img src=stimuli/r_y_1.jpg style=width:294px></img', '<br><img src=stimuli/r_y_2.jpg style=width:294px></img', '<br><img src=stimuli/r_y_3.jpg style=width:294px></img']",4,,,,2,,0.0-11.0,[0],<br><img src=stimuli/r_y_3.jpg style=width:294px></img,3795,3,,hr_ly_r,87127,surprise_quiz,21,survey-multi-choice,
1412,4_ramp_yellow,True,,True,"['<br><img src=stimuli/b_b_0.jpg style=width:294px></img', '<br><img src=stimuli/b_b_1.jpg style=width:294px></img', '<br><img src=stimuli/b_b_2.jpg style=width:294px></img', '<br><img src=stimuli/b_b_3.jpg style=width:294px></img']",4,,,,1,,0.0-12.0,[0],<br><img src=stimuli/b_b_1.jpg style=width:294px></img,3238,1,,lb_hb_r,90368,surprise_quiz,22,survey-multi-choice,
1412,4_ramp_yellow,True,,True,"['<br><img src=stimuli/r_b_0.jpg style=width:294px></img', '<br><img src=stimuli/r_b_1.jpg style=width:294px></img', '<br><img src=stimuli/r_b_2.jpg style=width:294px></img', '<br><img src=stimuli/r_b_3.jpg style=width:294px></img']",4,,,,0,,0.0-13.0,[0],<br><img src=stimuli/r_b_0.jpg style=width:294px></img,2188,0,,hr_hb_r,92558,surprise_quiz,23,survey-multi-choice,
1387,4_ramp_yellow,,1,,,4,True,No,False,,0,0.0-5.0-0.0,,No,2680,,stimuli/hr_hb_r_first.jpg,,25976,prediction_trial,7,image-button-response,
1387,4_ramp_yellow,,1,,,4,True,No,False,,1,0.0-6.0-0.0,,No,2398,,stimuli/lb_hb_r_first.jpg,,36714,prediction_trial,10,image-button-response,
1387,4_ramp_yellow,,1,,,4,True,Yes,True,,3,0.0-7.0-0.0,,Yes,1271,,stimuli/lb_ly_r_first.jpg,,46645,prediction_trial,13,image-button-response,
1387,4_ramp_yellow,,0,,,4,False,Yes,True,,2,0.0-8.0-0.0,,No,2027,,stimuli/hr_ly_r_first.jpg,,57478,prediction_trial,16,image-button-response,
1387,4_ramp_yellow,True,,True,"['<br><img src=stimuli/b_y_0.jpg style=width:384px></img', '<br><img src=stimuli/b_y_1.jpg style=width:384px></img', '<br><img src=stimuli/b_y_2.jpg style=width:384px></img', '<br><img src=stimuli/b_y_3.jpg style=width:384px></img']",4,,,,3,,0.0-10.0,[0],<br><img src=stimuli/b_y_3.jpg style=width:384px></img,4835,3,,lb_ly_r,72575,surprise_quiz,20,survey-multi-choice,
1387,4_ramp_yellow,False,,False,"['<br><img src=stimuli/b_b_0.jpg style=width:384px></img', '<br><img src=stimuli/b_b_1.jpg style=width:384px></img', '<br><img src=stimuli/b_b_2.jpg style=width:384px></img', '<br><img src=stimuli/b_b_3.jpg style=width:384px></img']",4,,,,1,,0.0-11.0,[0],<br><img src=stimuli/b_b_2.jpg style=width:384px></img,1961,2,,lb_hb_r,74537,surprise_quiz,21,survey-multi-choice,
1387,4_ramp_yellow,True,,True,"['<br><img src=stimuli/r_y_0.jpg style=width:384px></img', '<br><img src=stimuli/r_y_1.jpg style=width:384px></img', '<br><img src=stimuli/r_y_2.jpg style=width:384px></img', '<br><img src=stimuli/r_y_3.jpg style=width:384px></img']",4,,,,2,,0.0-12.0,[0],<br><img src=stimuli/r_y_2.jpg style=width:384px></img,1512,2,,hr_ly_r,76050,surprise_quiz,22,survey-multi-choice,
1387,4_ramp_yellow,False,,True,"['<br><img src=stimuli/r_b_0.jpg style=width:384px></img', '<br><img src=stimuli/r_b_1.jpg style=width:384px></img', '<br><img src=stimuli/r_b_2.jpg style=width:384px></img', '<br><img src=stimuli/r_b_3.jpg style=width:384px></img']",4,,,,0,,0.0-13.0,[0],<br><img src=stimuli/r_b_1.jpg style=width:384px></img,2637,1,,hr_hb_r,78689,surprise_quiz,23,survey-multi-choice,
1369,4_ramp_yellow,,0,,,4,False,Yes,True,,3,0.0-5.0-0.0,,No,13404,,stimuli/lb_ly_r_first.jpg,,96496,prediction_trial,7,image-button-response,
1369,4_ramp_yellow,,1,,,4,True,No,False,,1,0.0-6.0-0.0,,No,3758,,stimuli/lb_hb_r_first.jpg,,109722,prediction_trial,10,image-button-response,
1369,4_ramp_yellow,,1,,,4,True,No,False,,0,0.0-7.0-0.0,,No,7126,,stimuli/hr_hb_r_first.jpg,,126072,prediction_trial,13,image-button-response,
1369,4_ramp_yellow,,1,,,4,True,Yes,True,,2,0.0-8.0-0.0,,Yes,1319,,stimuli/hr_ly_r_first.jpg,,135598,prediction_trial,16,image-button-response,
1369,4_ramp_yellow,False,,True,"['<br><img src=stimuli/b_y_0.jpg style=width:256px></img', '<br><img src=stimuli/b_y_1.jpg style=width:256px></img', '<br><img src=stimuli/b_y_2.jpg style=width:256px></img', '<br><img src=stimuli/b_y_3.jpg style=width:256px></img']",4,,,,3,,0.0-10.0,[0],<br><img src=stimuli/b_y_2.jpg style=width:256px></img,17730,2,,lb_ly_r,165203,surprise_quiz,20,survey-multi-choice,
1369,4_ramp_yellow,False,,True,"['<br><img src=stimuli/b_b_0.jpg style=width:256px></img', '<br><img src=stimuli/b_b_1.jpg style=width:256px></img', '<br><img src=stimuli/b_b_2.jpg style=width:256px></img', '<br><img src=stimuli/b_b_3.jpg style=width:256px></img']",4,,,,1,,0.0-11.0,[0],<br><img src=stimuli/b_b_0.jpg style=width:256px></img,14114,0,,lb_hb_r,179318,surprise_quiz,21,survey-multi-choice,
1369,4_ramp_yellow,False,,True,"['<br><img src=stimuli/r_y_0.jpg style=width:256px></img', '<br><img src=stimuli/r_y_1.jpg style=width:256px></img', '<br><img src=stimuli/r_y_2.jpg style=width:256px></img', '<br><img src=stimuli/r_y_3.jpg style=width:256px></img']",4,,,,2,,0.0-12.0,[0],<br><img src=stimuli/r_y_3.jpg style=width:256px></img,5505,3,,hr_ly_r,184825,surprise_quiz,22,survey-multi-choice,
1369,4_ramp_yellow,False,,False,"['<br><img src=stimuli/r_b_0.jpg style=width:256px></img', '<br><img src=stimuli/r_b_1.jpg style=width:256px></img', '<br><img src=stimuli/r_b_2.jpg style=width:256px></img', '<br><img src=stimuli/r_b_3.jpg style=width:256px></img']",4,,,,0,,0.0-13.0,[0],<br><img src=stimuli/r_b_2.jpg style=width:256px></img,4565,2,,hr_hb_r,189392,surprise_quiz,23,survey-multi-choice,
1399,4_ramp_yellow,,1,,,4,True,Yes,True,,2,0.0-5.0-0.0,,Yes,4019,,stimuli/hr_ly_r_first.jpg,,133738,prediction_trial,7,image-button-response,
1399,4_ramp_yellow,,0,,,4,False,No,False,,1,0.0-6.0-0.0,,Yes,2657,,stimuli/lb_hb_r_first.jpg,,145458,prediction_trial,10,image-button-response,
1399,4_ramp_yellow,,0,,,4,False,Yes,True,,3,0.0-7.0-0.0,,No,3707,,stimuli/lb_ly_r_first.jpg,,158383,prediction_trial,13,image-button-response,
1399,4_ramp_yellow,,0,,,4,False,No,False,,0,0.0-8.0-0.0,,Yes,2469,,stimuli/hr_hb_r_first.jpg,,170970,prediction_trial,16,image-button-response,
1399,4_ramp_yellow,False,,True,"['<br><img src=stimuli/b_b_0.jpg style=width:273.2px></img', '<br><img src=stimuli/b_b_1.jpg style=width:273.2px></img', '<br><img src=stimuli/b_b_2.jpg style=width:273.2px></img', '<br><img src=stimuli/b_b_3.jpg style=width:273.2px></img']",4,,,,1,,0.0-10.0,[0],<br><img src=stimuli/b_b_0.jpg style=width:273.2px></img,7873,0,,lb_hb_r,189640,surprise_quiz,20,survey-multi-choice,
1399,4_ramp_yellow,False,,False,"['<br><img src=stimuli/r_b_0.jpg style=width:273.2px></img', '<br><img src=stimuli/r_b_1.jpg style=width:273.2px></img', '<br><img src=stimuli/r_b_2.jpg style=width:273.2px></img', '<br><img src=stimuli/r_b_3.jpg style=width:273.2px></img']",4,,,,0,,0.0-11.0,[0],<br><img src=stimuli/r_b_2.jpg style=width:273.2px></img,8379,2,,hr_hb_r,198024,surprise_quiz,21,survey-multi-choice,
1399,4_ramp_yellow,False,,False,"['<br><img src=stimuli/r_y_0.jpg style=width:273.2px></img', '<br><img src=stimuli/r_y_1.jpg style=width:273.2px></img', '<br><img src=stimuli/r_y_2.jpg style=width:273.2px></img', '<br><img src=stimuli/r_y_3.jpg style=width:273.2px></img']",4,,,,2,,0.0-12.0,[0],<br><img src=stimuli/r_y_0.jpg style=width:273.2px></img,6179,0,,hr_ly_r,204207,surprise_quiz,22,survey-multi-choice,
1399,4_ramp_yellow,False,,True,"['<br><img src=stimuli/b_y_0.jpg style=width:273.2px></img', '<br><img src=stimuli/b_y_1.jpg style=width:273.2px></img', '<br><img src=stimuli/b_y_2.jpg style=width:273.2px></img', '<br><img src=stimuli/b_y_3.jpg style=width:273.2px></img']",4,,,,3,,0.0-13.0,[0],<br><img src=stimuli/b_y_2.jpg style=width:273.2px></img,6690,2,,lb_ly_r,210903,surprise_quiz,23,survey-multi-choice,
1389,4_ramp_yellow,,1,,,4,True,No,False,,1,0.0-5.0-0.0,,No,23488,,stimuli/lb_hb_r_first.jpg,,214134,prediction_trial,7,image-button-response,
1389,4_ramp_yellow,,0,,,4,False,Yes,True,,2,0.0-6.0-0.0,,No,4201,,stimuli/hr_ly_r_first.jpg,,229551,prediction_trial,10,image-button-response,
1389,4_ramp_yellow,,1,,,4,True,No,False,,0,0.0-7.0-0.0,,No,8627,,stimuli/hr_hb_r_first.jpg,,250948,prediction_trial,13,image-button-response,
1389,4_ramp_yellow,,0,,,4,False,Yes,True,,3,0.0-8.0-0.0,,No,3646,,stimuli/lb_ly_r_first.jpg,,264542,prediction_trial,16,image-button-response,
1389,4_ramp_yellow,False,,False,"['<br><img src=stimuli/b_y_0.jpg style=width:273.6px></img', '<br><img src=stimuli/b_y_1.jpg style=width:273.6px></img', '<br><img src=stimuli/b_y_2.jpg style=width:273.6px></img', '<br><img src=stimuli/b_y_3.jpg style=width:273.6px></img']",4,,,,3,,0.0-10.0,[0],<br><img src=stimuli/b_y_0.jpg style=width:273.6px></img,19826,0,,lb_ly_r,304977,surprise_quiz,20,survey-multi-choice,
1389,4_ramp_yellow,False,,False,"['<br><img src=stimuli/b_b_0.jpg style=width:273.6px></img', '<br><img src=stimuli/b_b_1.jpg style=width:273.6px></img', '<br><img src=stimuli/b_b_2.jpg style=width:273.6px></img', '<br><img src=stimuli/b_b_3.jpg style=width:273.6px></img']",4,,,,1,,0.0-11.0,[0],<br><img src=stimuli/b_b_2.jpg style=width:273.6px></img,7442,2,,lb_hb_r,312423,surprise_quiz,21,survey-multi-choice,
1389,4_ramp_yellow,False,,True,"['<br><img src=stimuli/r_b_0.jpg style=width:273.6px></img', '<br><img src=stimuli/r_b_1.jpg style=width:273.6px></img', '<br><img src=stimuli/r_b_2.jpg style=width:273.6px></img', '<br><img src=stimuli/r_b_3.jpg style=width:273.6px></img']",4,,,,0,,0.0-12.0,[0],<br><img src=stimuli/r_b_1.jpg style=width:273.6px></img,5215,1,,hr_hb_r,317640,surprise_quiz,22,survey-multi-choice,
1389,4_ramp_yellow,False,,True,"['<br><img src=stimuli/r_y_0.jpg style=width:273.6px></img', '<br><img src=stimuli/r_y_1.jpg style=width:273.6px></img', '<br><img src=stimuli/r_y_2.jpg style=width:273.6px></img', '<br><img src=stimuli/r_y_3.jpg style=width:273.6px></img']",4,,,,2,,0.0-13.0,[0],<br><img src=stimuli/r_y_3.jpg style=width:273.6px></img,8562,3,,hr_ly_r,326205,surprise_quiz,23,survey-multi-choice,
1413,4_ramp_yellow,,1,,,4,True,Yes,True,,2,0.0-5.0-0.0,,Yes,1573,,stimuli/hr_ly_r_first.jpg,,13926,prediction_trial,7,image-button-response,
1413,4_ramp_yellow,,1,,,4,True,No,False,,0,0.0-6.0-0.0,,No,4955,,stimuli/hr_hb_r_first.jpg,,26796,prediction_trial,10,image-button-response,
1413,4_ramp_yellow,,1,,,4,True,Yes,True,,3,0.0-7.0-0.0,,Yes,1494,,stimuli/lb_ly_r_first.jpg,,36109,prediction_trial,13,image-button-response,
1413,4_ramp_yellow,,1,,,4,True,No,False,,1,0.0-8.0-0.0,,No,1519,,stimuli/lb_hb_r_first.jpg,,46305,prediction_trial,16,image-button-response,
1413,4_ramp_yellow,True,,True,"['<br><img src=stimuli/r_y_0.jpg style=width:384px></img', '<br><img src=stimuli/r_y_1.jpg style=width:384px></img', '<br><img src=stimuli/r_y_2.jpg style=width:384px></img', '<br><img src=stimuli/r_y_3.jpg style=width:384px></img']",4,,,,2,,0.0-10.0,[0],<br><img src=stimuli/r_y_2.jpg style=width:384px></img,4446,2,,hr_ly_r,60513,surprise_quiz,20,survey-multi-choice,
1413,4_ramp_yellow,False,,True,"['<br><img src=stimuli/r_b_0.jpg style=width:384px></img', '<br><img src=stimuli/r_b_1.jpg style=width:384px></img', '<br><img src=stimuli/r_b_2.jpg style=width:384px></img', '<br><img src=stimuli/r_b_3.jpg style=width:384px></img']",4,,,,0,,0.0-11.0,[0],<br><img src=stimuli/r_b_1.jpg style=width:384px></img,2910,1,,hr_hb_r,63426,surprise_quiz,21,survey-multi-choice,
1413,4_ramp_yellow,True,,True,"['<br><img src=stimuli/b_y_0.jpg style=width:384px></img', '<br><img src=stimuli/b_y_1.jpg style=width:384px></img', '<br><img src=stimuli/b_y_2.jpg style=width:384px></img', '<br><img src=stimuli/b_y_3.jpg style=width:384px></img']",4,,,,3,,0.0-12.0,[0],<br><img src=stimuli/b_y_3.jpg style=width:384px></img,2266,3,,lb_ly_r,65695,surprise_quiz,22,survey-multi-choice,
1413,4_ramp_yellow,False,,True,"['<br><img src=stimuli/b_b_0.jpg style=width:384px></img', '<br><img src=stimuli/b_b_1.jpg style=width:384px></img', '<br><img src=stimuli/b_b_2.jpg style=width:384px></img', '<br><img src=stimuli/b_b_3.jpg style=width:384px></img']",4,,,,1,,0.0-13.0,[0],<br><img src=stimuli/b_b_0.jpg style=width:384px></img,1715,0,,lb_hb_r,67413,surprise_quiz,23,survey-multi-choice,
1395,4_ramp_yellow,,1,,,4,True,Yes,True,,2,0.0-5.0-0.0,,Yes,8664,,stimuli/hr_ly_r_first.jpg,,57173,prediction_trial,7,image-button-response,
1395,4_ramp_yellow,,1,,,4,True,Yes,True,,3,0.0-6.0-0.0,,Yes,2301,,stimuli/lb_ly_r_first.jpg,,68242,prediction_trial,10,image-button-response,
1395,4_ramp_yellow,,0,,,4,False,No,False,,0,0.0-7.0-0.0,,Yes,1648,,stimuli/hr_hb_r_first.jpg,,78957,prediction_trial,13,image-button-response,
1395,4_ramp_yellow,,1,,,4,True,No,False,,1,0.0-8.0-0.0,,No,962,,stimuli/lb_hb_r_first.jpg,,88372,prediction_trial,16,image-button-response,
1395,4_ramp_yellow,False,,True,"['<br><img src=stimuli/b_y_0.jpg style=width:288px></img', '<br><img src=stimuli/b_y_1.jpg style=width:288px></img', '<br><img src=stimuli/b_y_2.jpg style=width:288px></img', '<br><img src=stimuli/b_y_3.jpg style=width:288px></img']",4,,,,3,,0.0-10.0,[0],<br><img src=stimuli/b_y_2.jpg style=width:288px></img,7836,2,,lb_ly_r,190835,surprise_quiz,20,survey-multi-choice,
1395,4_ramp_yellow,True,,True,"['<br><img src=stimuli/b_b_0.jpg style=width:288px></img', '<br><img src=stimuli/b_b_1.jpg style=width:288px></img', '<br><img src=stimuli/b_b_2.jpg style=width:288px></img', '<br><img src=stimuli/b_b_3.jpg style=width:288px></img']",4,,,,1,,0.0-11.0,[0],<br><img src=stimuli/b_b_1.jpg style=width:288px></img,4861,1,,lb_hb_r,195698,surprise_quiz,21,survey-multi-choice,
1395,4_ramp_yellow,True,,True,"['<br><img src=stimuli/r_b_0.jpg style=width:288px></img', '<br><img src=stimuli/r_b_1.jpg style=width:288px></img', '<br><img src=stimuli/r_b_2.jpg style=width:288px></img', '<br><img src=stimuli/r_b_3.jpg style=width:288px></img']",4,,,,0,,0.0-12.0,[0],<br><img src=stimuli/r_b_0.jpg style=width:288px></img,2515,0,,hr_hb_r,198215,surprise_quiz,22,survey-multi-choice,
1395,4_ramp_yellow,True,,True,"['<br><img src=stimuli/r_y_0.jpg style=width:288px></img', '<br><img src=stimuli/r_y_1.jpg style=width:288px></img', '<br><img src=stimuli/r_y_2.jpg style=width:288px></img', '<br><img src=stimuli/r_y_3.jpg style=width:288px></img']",4,,,,2,,0.0-13.0,[0],<br><img src=stimuli/r_y_2.jpg style=width:288px></img,3713,2,,hr_ly_r,201931,surprise_quiz,23,survey-multi-choice,
1367,4_ramp_yellow,,0,,,4,False,Yes,True,,3,0.0-5.0-0.0,,No,5221,,stimuli/lb_ly_r_first.jpg,,59919,prediction_trial,7,image-button-response,
1367,4_ramp_yellow,,1,,,4,True,Yes,True,,2,0.0-6.0-0.0,,Yes,3715,,stimuli/hr_ly_r_first.jpg,,73646,prediction_trial,10,image-button-response,
1367,4_ramp_yellow,,1,,,4,True,No,False,,0,0.0-7.0-0.0,,No,2627,,stimuli/hr_hb_r_first.jpg,,84967,prediction_trial,13,image-button-response,
1367,4_ramp_yellow,,0,,,4,False,No,False,,1,0.0-8.0-0.0,,Yes,1553,,stimuli/lb_hb_r_first.jpg,,95772,prediction_trial,16,image-button-response,
1367,4_ramp_yellow,False,,True,"['<br><img src=stimuli/b_y_0.jpg style=width:273.2px></img', '<br><img src=stimuli/b_y_1.jpg style=width:273.2px></img', '<br><img src=stimuli/b_y_2.jpg style=width:273.2px></img', '<br><img src=stimuli/b_y_3.jpg style=width:273.2px></img']",4,,,,3,,0.0-10.0,[0],<br><img src=stimuli/b_y_2.jpg style=width:273.2px></img,10635,2,,lb_ly_r,121006,surprise_quiz,20,survey-multi-choice,
1367,4_ramp_yellow,False,,True,"['<br><img src=stimuli/r_b_0.jpg style=width:273.2px></img', '<br><img src=stimuli/r_b_1.jpg style=width:273.2px></img', '<br><img src=stimuli/r_b_2.jpg style=width:273.2px></img', '<br><img src=stimuli/r_b_3.jpg style=width:273.2px></img']",4,,,,0,,0.0-11.0,[0],<br><img src=stimuli/r_b_1.jpg style=width:273.2px></img,4609,1,,hr_hb_r,125617,surprise_quiz,21,survey-multi-choice,
1367,4_ramp_yellow,True,,True,"['<br><img src=stimuli/b_b_0.jpg style=width:273.2px></img', '<br><img src=stimuli/b_b_1.jpg style=width:273.2px></img', '<br><img src=stimuli/b_b_2.jpg style=width:273.2px></img', '<br><img src=stimuli/b_b_3.jpg style=width:273.2px></img']",4,,,,1,,0.0-12.0,[0],<br><img src=stimuli/b_b_1.jpg style=width:273.2px></img,6255,1,,lb_hb_r,131875,surprise_quiz,22,survey-multi-choice,
1367,4_ramp_yellow,False,,True,"['<br><img src=stimuli/r_y_0.jpg style=width:273.2px></img', '<br><img src=stimuli/r_y_1.jpg style=width:273.2px></img', '<br><img src=stimuli/r_y_2.jpg style=width:273.2px></img', '<br><img src=stimuli/r_y_3.jpg style=width:273.2px></img']",4,,,,2,,0.0-13.0,[0],<br><img src=stimuli/r_y_3.jpg style=width:273.2px></img,4579,3,,hr_ly_r,136456,surprise_quiz,23,survey-multi-choice,
1407,4_ramp_yellow,,1,,,4,True,No,False,,0,0.0-5.0-0.0,,No,10357,,stimuli/hr_hb_r_first.jpg,,88757,prediction_trial,7,image-button-response,
1407,4_ramp_yellow,,0,,,4,False,Yes,True,,2,0.0-6.0-0.0,,No,24015,,stimuli/hr_ly_r_first.jpg,,123795,prediction_trial,10,image-button-response,
1407,4_ramp_yellow,,0,,,4,False,Yes,True,,3,0.0-7.0-0.0,,No,8710,,stimuli/lb_ly_r_first.jpg,,141436,prediction_trial,13,image-button-response,
1407,4_ramp_yellow,,0,,,4,False,No,False,,1,0.0-8.0-0.0,,Yes,4479,,stimuli/lb_hb_r_first.jpg,,155539,prediction_trial,16,image-button-response,
1407,4_ramp_yellow,False,,False,"['<br><img src=stimuli/b_y_0.jpg style=width:303.4px></img', '<br><img src=stimuli/b_y_1.jpg style=width:303.4px></img', '<br><img src=stimuli/b_y_2.jpg style=width:303.4px></img', '<br><img src=stimuli/b_y_3.jpg style=width:303.4px></img']",4,,,,3,,0.0-10.0,[0],<br><img src=stimuli/b_y_1.jpg style=width:303.4px></img,22163,1,,lb_ly_r,192954,surprise_quiz,20,survey-multi-choice,
1407,4_ramp_yellow,False,,True,"['<br><img src=stimuli/r_y_0.jpg style=width:303.4px></img', '<br><img src=stimuli/r_y_1.jpg style=width:303.4px></img', '<br><img src=stimuli/r_y_2.jpg style=width:303.4px></img', '<br><img src=stimuli/r_y_3.jpg style=width:303.4px></img']",4,,,,2,,0.0-11.0,[0],<br><img src=stimuli/r_y_3.jpg style=width:303.4px></img,11633,3,,hr_ly_r,204594,surprise_quiz,21,survey-multi-choice,
1407,4_ramp_yellow,False,,False,"['<br><img src=stimuli/b_b_0.jpg style=width:303.4px></img', '<br><img src=stimuli/b_b_1.jpg style=width:303.4px></img', '<br><img src=stimuli/b_b_2.jpg style=width:303.4px></img', '<br><img src=stimuli/b_b_3.jpg style=width:303.4px></img']",4,,,,1,,0.0-12.0,[0],<br><img src=stimuli/b_b_2.jpg style=width:303.4px></img,19705,2,,lb_hb_r,224306,surprise_quiz,22,survey-multi-choice,
1407,4_ramp_yellow,False,,False,"['<br><img src=stimuli/r_b_0.jpg style=width:303.4px></img', '<br><img src=stimuli/r_b_1.jpg style=width:303.4px></img', '<br><img src=stimuli/r_b_2.jpg style=width:303.4px></img', '<br><img src=stimuli/r_b_3.jpg style=width:303.4px></img']",4,,,,0,,0.0-13.0,[0],<br><img src=stimuli/r_b_2.jpg style=width:303.4px></img,8904,2,,hr_hb_r,233217,surprise_quiz,23,survey-multi-choice,
1403,4_ramp_yellow,,0,,,4,False,No,False,,1,0.0-5.0-0.0,,Yes,3616,,stimuli/lb_hb_r_first.jpg,,78692,prediction_trial,7,image-button-response,
1403,4_ramp_yellow,,1,,,4,True,Yes,True,,2,0.0-6.0-0.0,,Yes,1360,,stimuli/hr_ly_r_first.jpg,,89376,prediction_trial,10,image-button-response,
1403,4_ramp_yellow,,1,,,4,True,Yes,True,,3,0.0-7.0-0.0,,Yes,3190,,stimuli/lb_ly_r_first.jpg,,100922,prediction_trial,13,image-button-response,
1403,4_ramp_yellow,,0,,,4,False,No,False,,0,0.0-8.0-0.0,,Yes,4284,,stimuli/hr_hb_r_first.jpg,,114814,prediction_trial,16,image-button-response,
1403,4_ramp_yellow,False,,True,"['<br><img src=stimuli/b_b_0.jpg style=width:384px></img', '<br><img src=stimuli/b_b_1.jpg style=width:384px></img', '<br><img src=stimuli/b_b_2.jpg style=width:384px></img', '<br><img src=stimuli/b_b_3.jpg style=width:384px></img']",4,,,,1,,0.0-10.0,[0],<br><img src=stimuli/b_b_0.jpg style=width:384px></img,5794,0,,lb_hb_r,132053,surprise_quiz,20,survey-multi-choice,
1403,4_ramp_yellow,False,,False,"['<br><img src=stimuli/r_y_0.jpg style=width:384px></img', '<br><img src=stimuli/r_y_1.jpg style=width:384px></img', '<br><img src=stimuli/r_y_2.jpg style=width:384px></img', '<br><img src=stimuli/r_y_3.jpg style=width:384px></img']",4,,,,2,,0.0-11.0,[0],<br><img src=stimuli/r_y_1.jpg style=width:384px></img,4956,1,,hr_ly_r,137010,surprise_quiz,21,survey-multi-choice,
1403,4_ramp_yellow,True,,True,"['<br><img src=stimuli/b_y_0.jpg style=width:384px></img', '<br><img src=stimuli/b_y_1.jpg style=width:384px></img', '<br><img src=stimuli/b_y_2.jpg style=width:384px></img', '<br><img src=stimuli/b_y_3.jpg style=width:384px></img']",4,,,,3,,0.0-12.0,[0],<br><img src=stimuli/b_y_3.jpg style=width:384px></img,4253,3,,lb_ly_r,141265,surprise_quiz,22,survey-multi-choice,
1403,4_ramp_yellow,False,,True,"['<br><img src=stimuli/r_b_0.jpg style=width:384px></img', '<br><img src=stimuli/r_b_1.jpg style=width:384px></img', '<br><img src=stimuli/r_b_2.jpg style=width:384px></img', '<br><img src=stimuli/r_b_3.jpg style=width:384px></img']",4,,,,0,,0.0-13.0,[0],<br><img src=stimuli/r_b_1.jpg style=width:384px></img,6821,1,,hr_hb_r,148087,surprise_quiz,23,survey-multi-choice,
1417,4_ramp_yellow,,0,,,4,False,No,False,,1,0.0-5.0-0.0,,Yes,4657,,stimuli/lb_hb_r_first.jpg,,50682,prediction_trial,7,image-button-response,
1417,4_ramp_yellow,,1,,,4,True,Yes,True,,3,0.0-6.0-0.0,,Yes,4138,,stimuli/lb_ly_r_first.jpg,,64565,prediction_trial,10,image-button-response,
1417,4_ramp_yellow,,0,,,4,False,No,False,,0,0.0-7.0-0.0,,Yes,3393,,stimuli/hr_hb_r_first.jpg,,77197,prediction_trial,13,image-button-response,
1417,4_ramp_yellow,,1,,,4,True,Yes,True,,2,0.0-8.0-0.0,,Yes,738,,stimuli/hr_ly_r_first.jpg,,86137,prediction_trial,16,image-button-response,
1417,4_ramp_yellow,True,,True,"['<br><img src=stimuli/r_b_0.jpg style=width:307.2px></img', '<br><img src=stimuli/r_b_1.jpg style=width:307.2px></img', '<br><img src=stimuli/r_b_2.jpg style=width:307.2px></img', '<br><img src=stimuli/r_b_3.jpg style=width:307.2px></img']",4,,,,0,,0.0-10.0,[0],<br><img src=stimuli/r_b_0.jpg style=width:307.2px></img,13804,0,,hr_hb_r,113514,surprise_quiz,20,survey-multi-choice,
1417,4_ramp_yellow,True,,True,"['<br><img src=stimuli/b_y_0.jpg style=width:307.2px></img', '<br><img src=stimuli/b_y_1.jpg style=width:307.2px></img', '<br><img src=stimuli/b_y_2.jpg style=width:307.2px></img', '<br><img src=stimuli/b_y_3.jpg style=width:307.2px></img']",4,,,,3,,0.0-11.0,[0],<br><img src=stimuli/b_y_3.jpg style=width:307.2px></img,5093,3,,lb_ly_r,118610,surprise_quiz,21,survey-multi-choice,
1417,4_ramp_yellow,True,,True,"['<br><img src=stimuli/b_b_0.jpg style=width:307.2px></img', '<br><img src=stimuli/b_b_1.jpg style=width:307.2px></img', '<br><img src=stimuli/b_b_2.jpg style=width:307.2px></img', '<br><img src=stimuli/b_b_3.jpg style=width:307.2px></img']",4,,,,1,,0.0-12.0,[0],<br><img src=stimuli/b_b_1.jpg style=width:307.2px></img,5813,1,,lb_hb_r,124426,surprise_quiz,22,survey-multi-choice,
1417,4_ramp_yellow,True,,True,"['<br><img src=stimuli/r_y_0.jpg style=width:307.2px></img', '<br><img src=stimuli/r_y_1.jpg style=width:307.2px></img', '<br><img src=stimuli/r_y_2.jpg style=width:307.2px></img', '<br><img src=stimuli/r_y_3.jpg style=width:307.2px></img']",4,,,,2,,0.0-13.0,[0],<br><img src=stimuli/r_y_2.jpg style=width:307.2px></img,1933,2,,hr_ly_r,126362,surprise_quiz,23,survey-multi-choice,
1377,4_ramp_yellow,,0,,,4,False,Yes,True,,2,0.0-5.0-0.0,,No,3379,,stimuli/hr_ly_r_first.jpg,,44469,prediction_trial,7,image-button-response,
1377,4_ramp_yellow,,0,,,4,False,Yes,True,,3,0.0-6.0-0.0,,No,1479,,stimuli/lb_ly_r_first.jpg,,55553,prediction_trial,10,image-button-response,
1377,4_ramp_yellow,,0,,,4,False,No,False,,0,0.0-7.0-0.0,,Yes,5985,,stimuli/hr_hb_r_first.jpg,,70487,prediction_trial,13,image-button-response,
1377,4_ramp_yellow,,1,,,4,True,No,False,,1,0.0-8.0-0.0,,No,854,,stimuli/lb_hb_r_first.jpg,,80813,prediction_trial,16,image-button-response,
1377,4_ramp_yellow,True,,True,"['<br><img src=stimuli/r_b_0.jpg style=width:512px></img', '<br><img src=stimuli/r_b_1.jpg style=width:512px></img', '<br><img src=stimuli/r_b_2.jpg style=width:512px></img', '<br><img src=stimuli/r_b_3.jpg style=width:512px></img']",4,,,,0,,0.0-10.0,[0],<br><img src=stimuli/r_b_0.jpg style=width:512px></img,12323,0,,hr_hb_r,110522,surprise_quiz,20,survey-multi-choice,
1377,4_ramp_yellow,True,,True,"['<br><img src=stimuli/b_y_0.jpg style=width:512px></img', '<br><img src=stimuli/b_y_1.jpg style=width:512px></img', '<br><img src=stimuli/b_y_2.jpg style=width:512px></img', '<br><img src=stimuli/b_y_3.jpg style=width:512px></img']",4,,,,3,,0.0-11.0,[0],<br><img src=stimuli/b_y_3.jpg style=width:512px></img,3125,3,,lb_ly_r,113647,surprise_quiz,21,survey-multi-choice,
1377,4_ramp_yellow,True,,True,"['<br><img src=stimuli/r_y_0.jpg style=width:512px></img', '<br><img src=stimuli/r_y_1.jpg style=width:512px></img', '<br><img src=stimuli/r_y_2.jpg style=width:512px></img', '<br><img src=stimuli/r_y_3.jpg style=width:512px></img']",4,,,,2,,0.0-12.0,[0],<br><img src=stimuli/r_y_2.jpg style=width:512px></img,1994,2,,hr_ly_r,115642,surprise_quiz,22,survey-multi-choice,
1377,4_ramp_yellow,True,,True,"['<br><img src=stimuli/b_b_0.jpg style=width:512px></img', '<br><img src=stimuli/b_b_1.jpg style=width:512px></img', '<br><img src=stimuli/b_b_2.jpg style=width:512px></img', '<br><img src=stimuli/b_b_3.jpg style=width:512px></img']",4,,,,1,,0.0-13.0,[0],<br><img src=stimuli/b_b_1.jpg style=width:512px></img,3368,1,,lb_hb_r,119011,surprise_quiz,23,survey-multi-choice,
1352,1_cube_black,,1,,,1,True,Yes,True,,2,0.0-5.0-0.0,,Yes,4206,,stimuli/lb_hb_c_first.jpg,,60255,prediction_trial,7,image-button-response,
1352,1_cube_black,,0,,,1,False,No,False,,1,0.0-6.0-0.0,,Yes,3373,,stimuli/hr_ly_c_first.jpg,,74835,prediction_trial,10,image-button-response,
1352,1_cube_black,,0,,,1,False,No,False,,0,0.0-7.0-0.0,,Yes,2542,,stimuli/hr_hb_c_first.jpg,,86108,prediction_trial,13,image-button-response,
1352,1_cube_black,,1,,,1,True,Yes,True,,3,0.0-8.0-0.0,,Yes,1539,,stimuli/lb_ly_c_first.jpg,,95271,prediction_trial,16,image-button-response,
1352,1_cube_black,True,,True,"['<br><img src=stimuli/b_y_0.jpg style=width:288px></img', '<br><img src=stimuli/b_y_1.jpg style=width:288px></img', '<br><img src=stimuli/b_y_2.jpg style=width:288px></img', '<br><img src=stimuli/b_y_3.jpg style=width:288px></img']",1,,,,3,,0.0-10.0,[0],<br><img src=stimuli/b_y_3.jpg style=width:288px></img,12458,3,,lb_ly_c,120832,surprise_quiz,20,survey-multi-choice,
1352,1_cube_black,True,,True,"['<br><img src=stimuli/b_b_0.jpg style=width:288px></img', '<br><img src=stimuli/b_b_1.jpg style=width:288px></img', '<br><img src=stimuli/b_b_2.jpg style=width:288px></img', '<br><img src=stimuli/b_b_3.jpg style=width:288px></img']",1,,,,2,,0.0-11.0,[0],<br><img src=stimuli/b_b_2.jpg style=width:288px></img,4208,2,,lb_hb_c,125043,surprise_quiz,21,survey-multi-choice,
1352,1_cube_black,False,,True,"['<br><img src=stimuli/r_b_0.jpg style=width:288px></img', '<br><img src=stimuli/r_b_1.jpg style=width:288px></img', '<br><img src=stimuli/r_b_2.jpg style=width:288px></img', '<br><img src=stimuli/r_b_3.jpg style=width:288px></img']",1,,,,0,,0.0-12.0,[0],<br><img src=stimuli/r_b_1.jpg style=width:288px></img,5045,1,,hr_hb_c,130090,surprise_quiz,22,survey-multi-choice,
1352,1_cube_black,False,,True,"['<br><img src=stimuli/r_y_0.jpg style=width:288px></img', '<br><img src=stimuli/r_y_1.jpg style=width:288px></img', '<br><img src=stimuli/r_y_2.jpg style=width:288px></img', '<br><img src=stimuli/r_y_3.jpg style=width:288px></img']",1,,,,1,,0.0-13.0,[0],<br><img src=stimuli/r_y_0.jpg style=width:288px></img,2248,0,,hr_ly_c,132341,surprise_quiz,23,survey-multi-choice,
1242,1_cube_black,,1,,,1,True,Yes,True,,2,0.0-5.0-0.0,,Yes,5177,,stimuli/lb_hb_c_first.jpg,,78166,prediction_trial,7,image-button-response,
1242,1_cube_black,,0,,,1,False,No,False,,1,0.0-6.0-0.0,,Yes,2888,,stimuli/hr_ly_c_first.jpg,,90995,prediction_trial,10,image-button-response,
1242,1_cube_black,,0,,,1,False,No,False,,0,0.0-7.0-0.0,,Yes,3868,,stimuli/hr_hb_c_first.jpg,,103738,prediction_trial,13,image-button-response,
1242,1_cube_black,,0,,,1,False,Yes,True,,3,0.0-8.0-0.0,,No,1427,,stimuli/lb_ly_c_first.jpg,,113747,prediction_trial,16,image-button-response,
1242,1_cube_black,True,,True,"['<br><img src=stimuli/b_y_0.jpg style=width:288px></img', '<br><img src=stimuli/b_y_1.jpg style=width:288px></img', '<br><img src=stimuli/b_y_2.jpg style=width:288px></img', '<br><img src=stimuli/b_y_3.jpg style=width:288px></img']",1,,,,3,,0.0-10.0,[0],<br><img src=stimuli/b_y_3.jpg style=width:288px></img,7717,3,,lb_ly_c,132570,surprise_quiz,20,survey-multi-choice,
1242,1_cube_black,False,,True,"['<br><img src=stimuli/r_b_0.jpg style=width:288px></img', '<br><img src=stimuli/r_b_1.jpg style=width:288px></img', '<br><img src=stimuli/r_b_2.jpg style=width:288px></img', '<br><img src=stimuli/r_b_3.jpg style=width:288px></img']",1,,,,0,,0.0-11.0,[0],<br><img src=stimuli/r_b_1.jpg style=width:288px></img,4420,1,,hr_hb_c,136994,surprise_quiz,21,survey-multi-choice,
1242,1_cube_black,True,,True,"['<br><img src=stimuli/r_y_0.jpg style=width:288px></img', '<br><img src=stimuli/r_y_1.jpg style=width:288px></img', '<br><img src=stimuli/r_y_2.jpg style=width:288px></img', '<br><img src=stimuli/r_y_3.jpg style=width:288px></img']",1,,,,1,,0.0-12.0,[0],<br><img src=stimuli/r_y_1.jpg style=width:288px></img,5228,1,,hr_ly_c,142224,surprise_quiz,22,survey-multi-choice,
1242,1_cube_black,True,,True,"['<br><img src=stimuli/b_b_0.jpg style=width:288px></img', '<br><img src=stimuli/b_b_1.jpg style=width:288px></img', '<br><img src=stimuli/b_b_2.jpg style=width:288px></img', '<br><img src=stimuli/b_b_3.jpg style=width:288px></img']",1,,,,2,,0.0-13.0,[0],<br><img src=stimuli/b_b_2.jpg style=width:288px></img,2442,2,,lb_hb_c,144668,surprise_quiz,23,survey-multi-choice,
1313,1_cube_black,,0,,,1,False,Yes,True,,3,0.0-5.0-0.0,,No,8217,,stimuli/lb_ly_c_first.jpg,,83706,prediction_trial,7,image-button-response,
1313,1_cube_black,,0,,,1,False,Yes,True,,2,0.0-6.0-0.0,,No,2172,,stimuli/lb_hb_c_first.jpg,,96055,prediction_trial,10,image-button-response,
1313,1_cube_black,,0,,,1,False,No,False,,0,0.0-7.0-0.0,,Yes,1438,,stimuli/hr_hb_c_first.jpg,,107338,prediction_trial,13,image-button-response,
1313,1_cube_black,,1,,,1,True,No,False,,1,0.0-8.0-0.0,,No,1413,,stimuli/hr_ly_c_first.jpg,,117403,prediction_trial,16,image-button-response,
1313,1_cube_black,True,,True,"['<br><img src=stimuli/b_y_0.jpg style=width:82.8px></img', '<br><img src=stimuli/b_y_1.jpg style=width:82.8px></img', '<br><img src=stimuli/b_y_2.jpg style=width:82.8px></img', '<br><img src=stimuli/b_y_3.jpg style=width:82.8px></img']",1,,,,3,,0.0-10.0,[0],<br><img src=stimuli/b_y_3.jpg style=width:82.8px></img,16412,3,,lb_ly_c,153445,surprise_quiz,20,survey-multi-choice,
1313,1_cube_black,False,,True,"['<br><img src=stimuli/r_b_0.jpg style=width:82.8px></img', '<br><img src=stimuli/r_b_1.jpg style=width:82.8px></img', '<br><img src=stimuli/r_b_2.jpg style=width:82.8px></img', '<br><img src=stimuli/r_b_3.jpg style=width:82.8px></img']",1,,,,0,,0.0-11.0,[0],<br><img src=stimuli/r_b_1.jpg style=width:82.8px></img,8687,1,,hr_hb_c,162135,surprise_quiz,21,survey-multi-choice,
1313,1_cube_black,False,,False,"['<br><img src=stimuli/r_y_0.jpg style=width:82.8px></img', '<br><img src=stimuli/r_y_1.jpg style=width:82.8px></img', '<br><img src=stimuli/r_y_2.jpg style=width:82.8px></img', '<br><img src=stimuli/r_y_3.jpg style=width:82.8px></img']",1,,,,1,,0.0-12.0,[0],<br><img src=stimuli/r_y_3.jpg style=width:82.8px></img,7105,3,,hr_ly_c,169245,surprise_quiz,22,survey-multi-choice,
1313,1_cube_black,False,,True,"['<br><img src=stimuli/b_b_0.jpg style=width:82.8px></img', '<br><img src=stimuli/b_b_1.jpg style=width:82.8px></img', '<br><img src=stimuli/b_b_2.jpg style=width:82.8px></img', '<br><img src=stimuli/b_b_3.jpg style=width:82.8px></img']",1,,,,2,,0.0-13.0,[0],<br><img src=stimuli/b_b_3.jpg style=width:82.8px></img,10863,3,,lb_hb_c,180112,surprise_quiz,23,survey-multi-choice,
1295,1_cube_black,,0,,,1,False,No,False,,1,0.0-5.0-0.0,,Yes,3311,,stimuli/hr_ly_c_first.jpg,,79028,prediction_trial,7,image-button-response,
1295,1_cube_black,,1,,,1,True,Yes,True,,2,0.0-6.0-0.0,,Yes,1751,,stimuli/lb_hb_c_first.jpg,,90061,prediction_trial,10,image-button-response,
1295,1_cube_black,,0,,,1,False,No,False,,0,0.0-7.0-0.0,,Yes,1954,,stimuli/hr_hb_c_first.jpg,,103927,prediction_trial,13,image-button-response,
1295,1_cube_black,,1,,,1,True,Yes,True,,3,0.0-8.0-0.0,,Yes,1579,,stimuli/lb_ly_c_first.jpg,,114586,prediction_trial,16,image-button-response,
1295,1_cube_black,False,,False,"['<br><img src=stimuli/b_y_0.jpg style=width:336px></img', '<br><img src=stimuli/b_y_1.jpg style=width:336px></img', '<br><img src=stimuli/b_y_2.jpg style=width:336px></img', '<br><img src=stimuli/b_y_3.jpg style=width:336px></img']",1,,,,3,,0.0-10.0,[0],<br><img src=stimuli/b_y_1.jpg style=width:336px></img,6373,1,,lb_ly_c,138883,surprise_quiz,20,survey-multi-choice,
1295,1_cube_black,True,,True,"['<br><img src=stimuli/b_b_0.jpg style=width:336px></img', '<br><img src=stimuli/b_b_1.jpg style=width:336px></img', '<br><img src=stimuli/b_b_2.jpg style=width:336px></img', '<br><img src=stimuli/b_b_3.jpg style=width:336px></img']",1,,,,2,,0.0-11.0,[0],<br><img src=stimuli/b_b_2.jpg style=width:336px></img,8698,2,,lb_hb_c,147583,surprise_quiz,21,survey-multi-choice,
1295,1_cube_black,True,,True,"['<br><img src=stimuli/r_b_0.jpg style=width:336px></img', '<br><img src=stimuli/r_b_1.jpg style=width:336px></img', '<br><img src=stimuli/r_b_2.jpg style=width:336px></img', '<br><img src=stimuli/r_b_3.jpg style=width:336px></img']",1,,,,0,,0.0-12.0,[0],<br><img src=stimuli/r_b_0.jpg style=width:336px></img,4033,0,,hr_hb_c,151618,surprise_quiz,22,survey-multi-choice,
1295,1_cube_black,True,,True,"['<br><img src=stimuli/r_y_0.jpg style=width:336px></img', '<br><img src=stimuli/r_y_1.jpg style=width:336px></img', '<br><img src=stimuli/r_y_2.jpg style=width:336px></img', '<br><img src=stimuli/r_y_3.jpg style=width:336px></img']",1,,,,1,,0.0-13.0,[0],<br><img src=stimuli/r_y_1.jpg style=width:336px></img,8787,1,,hr_ly_c,160407,surprise_quiz,23,survey-multi-choice,
1343,1_cube_black,,0,,,1,False,No,False,,1,0.0-5.0-0.0,,Yes,1789,,stimuli/hr_ly_c_first.jpg,,23352,prediction_trial,7,image-button-response,
1343,1_cube_black,,1,,,1,True,Yes,True,,3,0.0-6.0-0.0,,Yes,1033,,stimuli/lb_ly_c_first.jpg,,32608,prediction_trial,10,image-button-response,
1343,1_cube_black,,0,,,1,False,No,False,,0,0.0-7.0-0.0,,Yes,802,,stimuli/hr_hb_c_first.jpg,,42293,prediction_trial,13,image-button-response,
1343,1_cube_black,,1,,,1,True,Yes,True,,2,0.0-8.0-0.0,,Yes,631,,stimuli/lb_hb_c_first.jpg,,49973,prediction_trial,16,image-button-response,
1343,1_cube_black,True,,True,"['<br><img src=stimuli/r_y_0.jpg style=width:288px></img', '<br><img src=stimuli/r_y_1.jpg style=width:288px></img', '<br><img src=stimuli/r_y_2.jpg style=width:288px></img', '<br><img src=stimuli/r_y_3.jpg style=width:288px></img']",1,,,,1,,0.0-10.0,[0],<br><img src=stimuli/r_y_1.jpg style=width:288px></img,6582,1,,hr_ly_c,66797,surprise_quiz,20,survey-multi-choice,
1343,1_cube_black,True,,True,"['<br><img src=stimuli/r_b_0.jpg style=width:288px></img', '<br><img src=stimuli/r_b_1.jpg style=width:288px></img', '<br><img src=stimuli/r_b_2.jpg style=width:288px></img', '<br><img src=stimuli/r_b_3.jpg style=width:288px></img']",1,,,,0,,0.0-11.0,[0],<br><img src=stimuli/r_b_0.jpg style=width:288px></img,2482,0,,hr_hb_c,69281,surprise_quiz,21,survey-multi-choice,
1343,1_cube_black,True,,True,"['<br><img src=stimuli/b_b_0.jpg style=width:288px></img', '<br><img src=stimuli/b_b_1.jpg style=width:288px></img', '<br><img src=stimuli/b_b_2.jpg style=width:288px></img', '<br><img src=stimuli/b_b_3.jpg style=width:288px></img']",1,,,,2,,0.0-12.0,[0],<br><img src=stimuli/b_b_2.jpg style=width:288px></img,3034,2,,lb_hb_c,72319,surprise_quiz,22,survey-multi-choice,
1343,1_cube_black,True,,True,"['<br><img src=stimuli/b_y_0.jpg style=width:288px></img', '<br><img src=stimuli/b_y_1.jpg style=width:288px></img', '<br><img src=stimuli/b_y_2.jpg style=width:288px></img', '<br><img src=stimuli/b_y_3.jpg style=width:288px></img']",1,,,,3,,0.0-13.0,[0],<br><img src=stimuli/b_y_3.jpg style=width:288px></img,1665,3,,lb_ly_c,73987,surprise_quiz,23,survey-multi-choice,
1333,1_cube_black,,0,,,1,False,No,False,,1,0.0-5.0-0.0,,Yes,2008,,stimuli/hr_ly_c_first.jpg,,68638,prediction_trial,7,image-button-response,
1333,1_cube_black,,1,,,1,True,Yes,True,,3,0.0-6.0-0.0,,Yes,2068,,stimuli/lb_ly_c_first.jpg,,89863,prediction_trial,10,image-button-response,
1333,1_cube_black,,1,,,1,True,Yes,True,,2,0.0-7.0-0.0,,Yes,304,,stimuli/lb_hb_c_first.jpg,,109499,prediction_trial,13,image-button-response,
1333,1_cube_black,,1,,,1,True,No,False,,0,0.0-8.0-0.0,,No,3906,,stimuli/hr_hb_c_first.jpg,,128949,prediction_trial,16,image-button-response,
1333,1_cube_black,True,,True,"['<br><img src=stimuli/r_y_0.jpg style=width:300.8px></img', '<br><img src=stimuli/r_y_1.jpg style=width:300.8px></img', '<br><img src=stimuli/r_y_2.jpg style=width:300.8px></img', '<br><img src=stimuli/r_y_3.jpg style=width:300.8px></img']",1,,,,1,,0.0-10.0,[0],<br><img src=stimuli/r_y_1.jpg style=width:300.8px></img,10381,1,,hr_ly_c,155059,surprise_quiz,20,survey-multi-choice,
1333,1_cube_black,False,,True,"['<br><img src=stimuli/b_y_0.jpg style=width:300.8px></img', '<br><img src=stimuli/b_y_1.jpg style=width:300.8px></img', '<br><img src=stimuli/b_y_2.jpg style=width:300.8px></img', '<br><img src=stimuli/b_y_3.jpg style=width:300.8px></img']",1,,,,3,,0.0-11.0,[0],<br><img src=stimuli/b_y_2.jpg style=width:300.8px></img,3259,2,,lb_ly_c,158321,surprise_quiz,21,survey-multi-choice,
1333,1_cube_black,False,,True,"['<br><img src=stimuli/b_b_0.jpg style=width:300.8px></img', '<br><img src=stimuli/b_b_1.jpg style=width:300.8px></img', '<br><img src=stimuli/b_b_2.jpg style=width:300.8px></img', '<br><img src=stimuli/b_b_3.jpg style=width:300.8px></img']",1,,,,2,,0.0-12.0,[0],<br><img src=stimuli/b_b_3.jpg style=width:300.8px></img,8475,3,,lb_hb_c,166798,surprise_quiz,22,survey-multi-choice,
1333,1_cube_black,True,,True,"['<br><img src=stimuli/r_b_0.jpg style=width:300.8px></img', '<br><img src=stimuli/r_b_1.jpg style=width:300.8px></img', '<br><img src=stimuli/r_b_2.jpg style=width:300.8px></img', '<br><img src=stimuli/r_b_3.jpg style=width:300.8px></img']",1,,,,0,,0.0-13.0,[0],<br><img src=stimuli/r_b_0.jpg style=width:300.8px></img,5119,0,,hr_hb_c,171919,surprise_quiz,23,survey-multi-choice,
1312,1_cube_black,,1,,,1,True,Yes,True,,3,0.0-5.0-0.0,,Yes,1918,,stimuli/lb_ly_c_first.jpg,,35139,prediction_trial,7,image-button-response,
1312,1_cube_black,,0,,,1,False,No,False,,1,0.0-6.0-0.0,,Yes,1824,,stimuli/hr_ly_c_first.jpg,,46322,prediction_trial,10,image-button-response,
1312,1_cube_black,,0,,,1,False,No,False,,0,0.0-7.0-0.0,,Yes,1582,,stimuli/hr_hb_c_first.jpg,,55883,prediction_trial,13,image-button-response,
1312,1_cube_black,,1,,,1,True,Yes,True,,2,0.0-8.0-0.0,,Yes,918,,stimuli/lb_hb_c_first.jpg,,64142,prediction_trial,16,image-button-response,
1312,1_cube_black,True,,True,"['<br><img src=stimuli/b_b_0.jpg style=width:384px></img', '<br><img src=stimuli/b_b_1.jpg style=width:384px></img', '<br><img src=stimuli/b_b_2.jpg style=width:384px></img', '<br><img src=stimuli/b_b_3.jpg style=width:384px></img']",1,,,,2,,0.0-10.0,[0],<br><img src=stimuli/b_b_2.jpg style=width:384px></img,3042,2,,lb_hb_c,78932,surprise_quiz,20,survey-multi-choice,
1312,1_cube_black,True,,True,"['<br><img src=stimuli/r_y_0.jpg style=width:384px></img', '<br><img src=stimuli/r_y_1.jpg style=width:384px></img', '<br><img src=stimuli/r_y_2.jpg style=width:384px></img', '<br><img src=stimuli/r_y_3.jpg style=width:384px></img']",1,,,,1,,0.0-11.0,[0],<br><img src=stimuli/r_y_1.jpg style=width:384px></img,5340,1,,hr_ly_c,84274,surprise_quiz,21,survey-multi-choice,
1312,1_cube_black,False,,True,"['<br><img src=stimuli/b_y_0.jpg style=width:384px></img', '<br><img src=stimuli/b_y_1.jpg style=width:384px></img', '<br><img src=stimuli/b_y_2.jpg style=width:384px></img', '<br><img src=stimuli/b_y_3.jpg style=width:384px></img']",1,,,,3,,0.0-12.0,[0],<br><img src=stimuli/b_y_2.jpg style=width:384px></img,2643,2,,lb_ly_c,86910,surprise_quiz,22,survey-multi-choice,
1312,1_cube_black,True,,True,"['<br><img src=stimuli/r_b_0.jpg style=width:384px></img', '<br><img src=stimuli/r_b_1.jpg style=width:384px></img', '<br><img src=stimuli/r_b_2.jpg style=width:384px></img', '<br><img src=stimuli/r_b_3.jpg style=width:384px></img']",1,,,,0,,0.0-13.0,[0],<br><img src=stimuli/r_b_0.jpg style=width:384px></img,1363,0,,hr_hb_c,88275,surprise_quiz,23,survey-multi-choice,
1340,1_cube_black,,0,,,1,False,Yes,True,,3,0.0-5.0-0.0,,No,2542,,stimuli/lb_ly_c_first.jpg,,46649,prediction_trial,7,image-button-response,
1340,1_cube_black,,0,,,1,False,No,False,,0,0.0-6.0-0.0,,Yes,3677,,stimuli/hr_hb_c_first.jpg,,62083,prediction_trial,10,image-button-response,
1340,1_cube_black,,1,,,1,True,Yes,True,,2,0.0-7.0-0.0,,Yes,7265,,stimuli/lb_hb_c_first.jpg,,77751,prediction_trial,13,image-button-response,
1340,1_cube_black,,0,,,1,False,No,False,,1,0.0-8.0-0.0,,Yes,7689,,stimuli/hr_ly_c_first.jpg,,94769,prediction_trial,16,image-button-response,
1340,1_cube_black,True,,True,"['<br><img src=stimuli/b_b_0.jpg style=width:256px></img', '<br><img src=stimuli/b_b_1.jpg style=width:256px></img', '<br><img src=stimuli/b_b_2.jpg style=width:256px></img', '<br><img src=stimuli/b_b_3.jpg style=width:256px></img']",1,,,,2,,0.0-10.0,[0],<br><img src=stimuli/b_b_2.jpg style=width:256px></img,7159,2,,lb_hb_c,114025,surprise_quiz,20,survey-multi-choice,
1340,1_cube_black,False,,True,"['<br><img src=stimuli/r_b_0.jpg style=width:256px></img', '<br><img src=stimuli/r_b_1.jpg style=width:256px></img', '<br><img src=stimuli/r_b_2.jpg style=width:256px></img', '<br><img src=stimuli/r_b_3.jpg style=width:256px></img']",1,,,,0,,0.0-11.0,[0],<br><img src=stimuli/r_b_1.jpg style=width:256px></img,6350,1,,hr_hb_c,120380,surprise_quiz,21,survey-multi-choice,
1340,1_cube_black,True,,True,"['<br><img src=stimuli/b_y_0.jpg style=width:256px></img', '<br><img src=stimuli/b_y_1.jpg style=width:256px></img', '<br><img src=stimuli/b_y_2.jpg style=width:256px></img', '<br><img src=stimuli/b_y_3.jpg style=width:256px></img']",1,,,,3,,0.0-12.0,[0],<br><img src=stimuli/b_y_3.jpg style=width:256px></img,6439,3,,lb_ly_c,126823,surprise_quiz,22,survey-multi-choice,
1340,1_cube_black,False,,False,"['<br><img src=stimuli/r_y_0.jpg style=width:256px></img', '<br><img src=stimuli/r_y_1.jpg style=width:256px></img', '<br><img src=stimuli/r_y_2.jpg style=width:256px></img', '<br><img src=stimuli/r_y_3.jpg style=width:256px></img']",1,,,,1,,0.0-13.0,[0],<br><img src=stimuli/r_y_2.jpg style=width:256px></img,7488,2,,hr_ly_c,134317,surprise_quiz,23,survey-multi-choice,
1336,1_cube_black,,0,,,1,False,Yes,True,,2,0.0-5.0-0.0,,No,3660,,stimuli/lb_hb_c_first.jpg,,48313,prediction_trial,7,image-button-response,
1336,1_cube_black,,0,,,1,False,No,False,,1,0.0-6.0-0.0,,Yes,2625,,stimuli/hr_ly_c_first.jpg,,60854,prediction_trial,10,image-button-response,
1336,1_cube_black,,1,,,1,True,Yes,True,,3,0.0-7.0-0.0,,Yes,4072,,stimuli/lb_ly_c_first.jpg,,73242,prediction_trial,13,image-button-response,
1336,1_cube_black,,1,,,1,True,No,False,,0,0.0-8.0-0.0,,No,1589,,stimuli/hr_hb_c_first.jpg,,84180,prediction_trial,16,image-button-response,
1336,1_cube_black,True,,True,"['<br><img src=stimuli/r_y_0.jpg style=width:336px></img', '<br><img src=stimuli/r_y_1.jpg style=width:336px></img', '<br><img src=stimuli/r_y_2.jpg style=width:336px></img', '<br><img src=stimuli/r_y_3.jpg style=width:336px></img']",1,,,,1,,0.0-10.0,[0],<br><img src=stimuli/r_y_1.jpg style=width:336px></img,4288,1,,hr_ly_c,100863,surprise_quiz,20,survey-multi-choice,
1336,1_cube_black,True,,True,"['<br><img src=stimuli/b_y_0.jpg style=width:336px></img', '<br><img src=stimuli/b_y_1.jpg style=width:336px></img', '<br><img src=stimuli/b_y_2.jpg style=width:336px></img', '<br><img src=stimuli/b_y_3.jpg style=width:336px></img']",1,,,,3,,0.0-11.0,[0],<br><img src=stimuli/b_y_3.jpg style=width:336px></img,6434,3,,lb_ly_c,107300,surprise_quiz,21,survey-multi-choice,
1336,1_cube_black,False,,True,"['<br><img src=stimuli/r_b_0.jpg style=width:336px></img', '<br><img src=stimuli/r_b_1.jpg style=width:336px></img', '<br><img src=stimuli/r_b_2.jpg style=width:336px></img', '<br><img src=stimuli/r_b_3.jpg style=width:336px></img']",1,,,,0,,0.0-12.0,[0],<br><img src=stimuli/r_b_1.jpg style=width:336px></img,4079,1,,hr_hb_c,111379,surprise_quiz,22,survey-multi-choice,
1336,1_cube_black,True,,True,"['<br><img src=stimuli/b_b_0.jpg style=width:336px></img', '<br><img src=stimuli/b_b_1.jpg style=width:336px></img', '<br><img src=stimuli/b_b_2.jpg style=width:336px></img', '<br><img src=stimuli/b_b_3.jpg style=width:336px></img']",1,,,,2,,0.0-13.0,[0],<br><img src=stimuli/b_b_2.jpg style=width:336px></img,4949,2,,lb_hb_c,116331,surprise_quiz,23,survey-multi-choice,
1347,1_cube_black,,0,,,1,False,Yes,True,,3,0.0-5.0-0.0,,No,5805,,stimuli/lb_ly_c_first.jpg,,63579,prediction_trial,7,image-button-response,
1347,1_cube_black,,0,,,1,False,No,False,,1,0.0-6.0-0.0,,Yes,2434,,stimuli/hr_ly_c_first.jpg,,76444,prediction_trial,10,image-button-response,
1347,1_cube_black,,1,,,1,True,Yes,True,,2,0.0-7.0-0.0,,Yes,2280,,stimuli/lb_hb_c_first.jpg,,88068,prediction_trial,13,image-button-response,
1347,1_cube_black,,1,,,1,True,No,False,,0,0.0-8.0-0.0,,No,1132,,stimuli/hr_hb_c_first.jpg,,98598,prediction_trial,16,image-button-response,
1347,1_cube_black,True,,True,"['<br><img src=stimuli/r_b_0.jpg style=width:320px></img', '<br><img src=stimuli/r_b_1.jpg style=width:320px></img', '<br><img src=stimuli/r_b_2.jpg style=width:320px></img', '<br><img src=stimuli/r_b_3.jpg style=width:320px></img']",1,,,,0,,0.0-10.0,[0],<br><img src=stimuli/r_b_0.jpg style=width:320px></img,11077,0,,hr_hb_c,121729,surprise_quiz,20,survey-multi-choice,
1347,1_cube_black,True,,True,"['<br><img src=stimuli/r_y_0.jpg style=width:320px></img', '<br><img src=stimuli/r_y_1.jpg style=width:320px></img', '<br><img src=stimuli/r_y_2.jpg style=width:320px></img', '<br><img src=stimuli/r_y_3.jpg style=width:320px></img']",1,,,,1,,0.0-11.0,[0],<br><img src=stimuli/r_y_1.jpg style=width:320px></img,4703,1,,hr_ly_c,126436,surprise_quiz,21,survey-multi-choice,
1347,1_cube_black,True,,True,"['<br><img src=stimuli/b_y_0.jpg style=width:320px></img', '<br><img src=stimuli/b_y_1.jpg style=width:320px></img', '<br><img src=stimuli/b_y_2.jpg style=width:320px></img', '<br><img src=stimuli/b_y_3.jpg style=width:320px></img']",1,,,,3,,0.0-12.0,[0],<br><img src=stimuli/b_y_3.jpg style=width:320px></img,3910,3,,lb_ly_c,130348,surprise_quiz,22,survey-multi-choice,
1347,1_cube_black,True,,True,"['<br><img src=stimuli/b_b_0.jpg style=width:320px></img', '<br><img src=stimuli/b_b_1.jpg style=width:320px></img', '<br><img src=stimuli/b_b_2.jpg style=width:320px></img', '<br><img src=stimuli/b_b_3.jpg style=width:320px></img']",1,,,,2,,0.0-13.0,[0],<br><img src=stimuli/b_b_2.jpg style=width:320px></img,2496,2,,lb_hb_c,132846,surprise_quiz,23,survey-multi-choice,
1320,1_cube_black,,1,,,1,True,No,False,,0,0.0-5.0-0.0,,No,5483,,stimuli/hr_hb_c_first.jpg,,122925,prediction_trial,7,image-button-response,
1320,1_cube_black,,0,,,1,False,No,False,,1,0.0-6.0-0.0,,Yes,2071,,stimuli/hr_ly_c_first.jpg,,133842,prediction_trial,10,image-button-response,
1320,1_cube_black,,1,,,1,True,Yes,True,,3,0.0-7.0-0.0,,Yes,2841,,stimuli/lb_ly_c_first.jpg,,145600,prediction_trial,13,image-button-response,
1320,1_cube_black,,0,,,1,False,Yes,True,,2,0.0-8.0-0.0,,No,1619,,stimuli/lb_hb_c_first.jpg,,157175,prediction_trial,16,image-button-response,
1320,1_cube_black,False,,True,"['<br><img src=stimuli/r_y_0.jpg style=width:307.2px></img', '<br><img src=stimuli/r_y_1.jpg style=width:307.2px></img', '<br><img src=stimuli/r_y_2.jpg style=width:307.2px></img', '<br><img src=stimuli/r_y_3.jpg style=width:307.2px></img']",1,,,,1,,0.0-10.0,[0],<br><img src=stimuli/r_y_0.jpg style=width:307.2px></img,7998,0,,hr_ly_c,182913,surprise_quiz,20,survey-multi-choice,
1320,1_cube_black,False,,False,"['<br><img src=stimuli/b_y_0.jpg style=width:307.2px></img', '<br><img src=stimuli/b_y_1.jpg style=width:307.2px></img', '<br><img src=stimuli/b_y_2.jpg style=width:307.2px></img', '<br><img src=stimuli/b_y_3.jpg style=width:307.2px></img']",1,,,,3,,0.0-11.0,[0],<br><img src=stimuli/b_y_1.jpg style=width:307.2px></img,3432,1,,lb_ly_c,186347,surprise_quiz,21,survey-multi-choice,
1320,1_cube_black,False,,True,"['<br><img src=stimuli/r_b_0.jpg style=width:307.2px></img', '<br><img src=stimuli/r_b_1.jpg style=width:307.2px></img', '<br><img src=stimuli/r_b_2.jpg style=width:307.2px></img', '<br><img src=stimuli/r_b_3.jpg style=width:307.2px></img']",1,,,,0,,0.0-12.0,[0],<br><img src=stimuli/r_b_1.jpg style=width:307.2px></img,6373,1,,hr_hb_c,192721,surprise_quiz,22,survey-multi-choice,
1320,1_cube_black,True,,True,"['<br><img src=stimuli/b_b_0.jpg style=width:307.2px></img', '<br><img src=stimuli/b_b_1.jpg style=width:307.2px></img', '<br><img src=stimuli/b_b_2.jpg style=width:307.2px></img', '<br><img src=stimuli/b_b_3.jpg style=width:307.2px></img']",1,,,,2,,0.0-13.0,[0],<br><img src=stimuli/b_b_2.jpg style=width:307.2px></img,3933,2,,lb_hb_c,196655,surprise_quiz,23,survey-multi-choice,
1342,1_cube_black,,1,,,1,True,No,False,,0,0.0-5.0-0.0,,No,10268,,stimuli/hr_hb_c_first.jpg,,72038,prediction_trial,7,image-button-response,
1342,1_cube_black,,0,,,1,False,No,False,,1,0.0-6.0-0.0,,Yes,8431,,stimuli/hr_ly_c_first.jpg,,89979,prediction_trial,10,image-button-response,
1342,1_cube_black,,1,,,1,True,Yes,True,,3,0.0-7.0-0.0,,Yes,2808,,stimuli/lb_ly_c_first.jpg,,101774,prediction_trial,13,image-button-response,
1342,1_cube_black,,1,,,1,True,Yes,True,,2,0.0-8.0-0.0,,Yes,6151,,stimuli/lb_hb_c_first.jpg,,117585,prediction_trial,16,image-button-response,
1342,1_cube_black,True,,True,"['<br><img src=stimuli/b_y_0.jpg style=width:273.2px></img', '<br><img src=stimuli/b_y_1.jpg style=width:273.2px></img', '<br><img src=stimuli/b_y_2.jpg style=width:273.2px></img', '<br><img src=stimuli/b_y_3.jpg style=width:273.2px></img']",1,,,,3,,0.0-10.0,[0],<br><img src=stimuli/b_y_3.jpg style=width:273.2px></img,10552,3,,lb_ly_c,145537,surprise_quiz,20,survey-multi-choice,
1342,1_cube_black,True,,True,"['<br><img src=stimuli/r_b_0.jpg style=width:273.2px></img', '<br><img src=stimuli/r_b_1.jpg style=width:273.2px></img', '<br><img src=stimuli/r_b_2.jpg style=width:273.2px></img', '<br><img src=stimuli/r_b_3.jpg style=width:273.2px></img']",1,,,,0,,0.0-11.0,[0],<br><img src=stimuli/r_b_0.jpg style=width:273.2px></img,5608,0,,hr_hb_c,151148,surprise_quiz,21,survey-multi-choice,
1342,1_cube_black,False,,True,"['<br><img src=stimuli/b_b_0.jpg style=width:273.2px></img', '<br><img src=stimuli/b_b_1.jpg style=width:273.2px></img', '<br><img src=stimuli/b_b_2.jpg style=width:273.2px></img', '<br><img src=stimuli/b_b_3.jpg style=width:273.2px></img']",1,,,,2,,0.0-12.0,[0],<br><img src=stimuli/b_b_3.jpg style=width:273.2px></img,4611,3,,lb_hb_c,155762,surprise_quiz,22,survey-multi-choice,
1342,1_cube_black,True,,True,"['<br><img src=stimuli/r_y_0.jpg style=width:273.2px></img', '<br><img src=stimuli/r_y_1.jpg style=width:273.2px></img', '<br><img src=stimuli/r_y_2.jpg style=width:273.2px></img', '<br><img src=stimuli/r_y_3.jpg style=width:273.2px></img']",1,,,,1,,0.0-13.0,[0],<br><img src=stimuli/r_y_1.jpg style=width:273.2px></img,6052,1,,hr_ly_c,161816,surprise_quiz,23,survey-multi-choice,
1294,1_cube_black,,1,,,1,True,No,False,,1,0.0-5.0-0.0,,No,2832,,stimuli/hr_ly_c_first.jpg,,33297,prediction_trial,7,image-button-response,
1294,1_cube_black,,1,,,1,True,Yes,True,,3,0.0-6.0-0.0,,Yes,1397,,stimuli/lb_ly_c_first.jpg,,42891,prediction_trial,10,image-button-response,
1294,1_cube_black,,0,,,1,False,No,False,,0,0.0-7.0-0.0,,Yes,5811,,stimuli/hr_hb_c_first.jpg,,57887,prediction_trial,13,image-button-response,
1294,1_cube_black,,1,,,1,True,Yes,True,,2,0.0-8.0-0.0,,Yes,1924,,stimuli/lb_hb_c_first.jpg,,67215,prediction_trial,16,image-button-response,
1294,1_cube_black,True,,True,"['<br><img src=stimuli/b_b_0.jpg style=width:384px></img', '<br><img src=stimuli/b_b_1.jpg style=width:384px></img', '<br><img src=stimuli/b_b_2.jpg style=width:384px></img', '<br><img src=stimuli/b_b_3.jpg style=width:384px></img']",1,,,,2,,0.0-10.0,[0],<br><img src=stimuli/b_b_2.jpg style=width:384px></img,7170,2,,lb_hb_c,85906,surprise_quiz,20,survey-multi-choice,
1294,1_cube_black,True,,True,"['<br><img src=stimuli/r_b_0.jpg style=width:384px></img', '<br><img src=stimuli/r_b_1.jpg style=width:384px></img', '<br><img src=stimuli/r_b_2.jpg style=width:384px></img', '<br><img src=stimuli/r_b_3.jpg style=width:384px></img']",1,,,,0,,0.0-11.0,[0],<br><img src=stimuli/r_b_0.jpg style=width:384px></img,4390,0,,hr_hb_c,90296,surprise_quiz,21,survey-multi-choice,
1294,1_cube_black,True,,True,"['<br><img src=stimuli/r_y_0.jpg style=width:384px></img', '<br><img src=stimuli/r_y_1.jpg style=width:384px></img', '<br><img src=stimuli/r_y_2.jpg style=width:384px></img', '<br><img src=stimuli/r_y_3.jpg style=width:384px></img']",1,,,,1,,0.0-12.0,[0],<br><img src=stimuli/r_y_1.jpg style=width:384px></img,2566,1,,hr_ly_c,92863,surprise_quiz,22,survey-multi-choice,
1294,1_cube_black,True,,True,"['<br><img src=stimuli/b_y_0.jpg style=width:384px></img', '<br><img src=stimuli/b_y_1.jpg style=width:384px></img', '<br><img src=stimuli/b_y_2.jpg style=width:384px></img', '<br><img src=stimuli/b_y_3.jpg style=width:384px></img']",1,,,,3,,0.0-13.0,[0],<br><img src=stimuli/b_y_3.jpg style=width:384px></img,2642,3,,lb_ly_c,95506,surprise_quiz,23,survey-multi-choice,
1349,1_cube_black,,0,,,1,False,No,False,,1,0.0-5.0-0.0,,Yes,11256,,stimuli/hr_ly_c_first.jpg,,436317,prediction_trial,7,image-button-response,
1349,1_cube_black,,0,,,1,False,No,False,,0,0.0-6.0-0.0,,Yes,3489,,stimuli/hr_hb_c_first.jpg,,449003,prediction_trial,10,image-button-response,
1349,1_cube_black,,0,,,1,False,Yes,True,,2,0.0-7.0-0.0,,No,4097,,stimuli/lb_hb_c_first.jpg,,461502,prediction_trial,13,image-button-response,
1349,1_cube_black,,1,,,1,True,Yes,True,,3,0.0-8.0-0.0,,Yes,3684,,stimuli/lb_ly_c_first.jpg,,474396,prediction_trial,16,image-button-response,
1349,1_cube_black,True,,True,"['<br><img src=stimuli/r_b_0.jpg style=width:256px></img', '<br><img src=stimuli/r_b_1.jpg style=width:256px></img', '<br><img src=stimuli/r_b_2.jpg style=width:256px></img', '<br><img src=stimuli/r_b_3.jpg style=width:256px></img']",1,,,,0,,0.0-10.0,[0],<br><img src=stimuli/r_b_0.jpg style=width:256px></img,6896,0,,hr_hb_c,686275,surprise_quiz,20,survey-multi-choice,
1349,1_cube_black,True,,True,"['<br><img src=stimuli/r_y_0.jpg style=width:256px></img', '<br><img src=stimuli/r_y_1.jpg style=width:256px></img', '<br><img src=stimuli/r_y_2.jpg style=width:256px></img', '<br><img src=stimuli/r_y_3.jpg style=width:256px></img']",1,,,,1,,0.0-11.0,[0],<br><img src=stimuli/r_y_1.jpg style=width:256px></img,6566,1,,hr_ly_c,692842,surprise_quiz,21,survey-multi-choice,
1349,1_cube_black,False,,True,"['<br><img src=stimuli/b_y_0.jpg style=width:256px></img', '<br><img src=stimuli/b_y_1.jpg style=width:256px></img', '<br><img src=stimuli/b_y_2.jpg style=width:256px></img', '<br><img src=stimuli/b_y_3.jpg style=width:256px></img']",1,,,,3,,0.0-12.0,[0],<br><img src=stimuli/b_y_2.jpg style=width:256px></img,5972,2,,lb_ly_c,698816,surprise_quiz,22,survey-multi-choice,
1349,1_cube_black,False,,True,"['<br><img src=stimuli/b_b_0.jpg style=width:256px></img', '<br><img src=stimuli/b_b_1.jpg style=width:256px></img', '<br><img src=stimuli/b_b_2.jpg style=width:256px></img', '<br><img src=stimuli/b_b_3.jpg style=width:256px></img']",1,,,,2,,0.0-13.0,[0],<br><img src=stimuli/b_b_3.jpg style=width:256px></img,3094,3,,lb_hb_c,701910,surprise_quiz,23,survey-multi-choice,
1314,1_cube_black,,1,,,1,True,Yes,True,,3,0.0-5.0-0.0,,Yes,3685,,stimuli/lb_ly_c_first.jpg,,71399,prediction_trial,7,image-button-response,
1314,1_cube_black,,0,,,1,False,No,False,,0,0.0-6.0-0.0,,Yes,1769,,stimuli/hr_hb_c_first.jpg,,83427,prediction_trial,10,image-button-response,
1314,1_cube_black,,1,,,1,True,Yes,True,,2,0.0-7.0-0.0,,Yes,2387,,stimuli/lb_hb_c_first.jpg,,99857,prediction_trial,13,image-button-response,
1314,1_cube_black,,1,,,1,True,No,False,,1,0.0-8.0-0.0,,No,951,,stimuli/hr_ly_c_first.jpg,,110889,prediction_trial,16,image-button-response,
