workerid,proliferate.condition,accuracy,accuracy_bool,accuracy_finish_line,age,bonus,choices,condition,correct,correct_response,crosses,end_posision,end_position,ethnicity,failed_audio,failed_images,failed_video,feedback,gender,internal_node_id,overall_accuracy,question_order,race,response,rt,selected_position,stimulus,success,surprise_setup,time_elapsed,timeout,trial,trial_index,trial_type,view_history,error
1415,4_ramp_yellow,,,,,,,4,,,,,,,[],[],[],,,0.0-0.0,,,,,,,,True,,1254,False,,0,preload,,
1415,4_ramp_yellow,,,,,,,4,,,,,,,,,,,,0.0-1.0,,,,,,,,True,,3972,,,1,fullscreen,,
1415,4_ramp_yellow,,,,,,,4,,,,,,,,,,,,0.0-2.0,,,,0,4751,,"<p><b>Consent Form</b></p> <div style=""text-align:left;background-color:lightblue; padding:20px; max-width:900px;""><p><b>Description:</b> Welcome! You are invited to participate in a research study in cognitive psychology. You will be asked to perform various tasks on a computer which may include: looking at images or videos, listening to sounds, reading scenarios, or playing games. You may be asked a number of different questions about making judgments and intepreting people's actions. All information collected will remain confidential. </p> <p> <b>Risks and benefits:</b> Risks involved in this study are the same as those normally associated with using a computer (e.g., mild eye/arm strain). If you have any pre- existing conditions that might make reading and completing a computer-based survey strenuous for you, you should probably elect to not participate in this study. If at any time during the study you feel unable to participate because you are experiencing strain, you may end your participation without penalty. We cannot and do not guarantee or promise that you will receive any benefits from this study. Your decision whether or not to participate in this study will not affect your employment, medical care, and/or grades in school. </p><p><b>Time involvement:</b> Your participation in this experiment will take  5 minutes. </p><p><b> Payment:</b> If recruitment materials indicate payment (e.g., Prolific or other recruitment), you will receive compensation as indicated. </p><p><b>Subject's rights:</b> If you have read this notice and have decided to participate in this project, please understand your participation is voluntary and you have the right to withdraw your consent or discontinue participation at any time without penalty or loss of benefits to which you are otherwise entitled. You have the right to refuse to answer particular questions. Your individual privacy will be maintained in all published and written data resulting from the study. </p><p><b>Contact information:</b> If you have any questions, concerns or complaints about this research study, its procedures, or risks and benefits, you should ask the Protocol Director, (Professor Tobias Gerstenberg, Phone: (650) 725-2431; Email: gerstenberg@stanford.edu). </p><p><b>Independent contact:</b> If you are not satisfied with how this study is being conducted, or if you have any concerns, complaints, or general questions about the research or your rights as a participant, please contact the Stanford Institutional Review Board (IRB) to speak to someone independent of the research team via email at irb2-manager@lists.stanford.edu, or via phone at (650) 723-2480 or toll free at 1-866-680-2906. You can also write to the Stanford IRB, Stanford University, 3000 El Camino Real, Five Palo Alto Square, 4th Floor, Palo Alto, CA 94306. </p><p>You may want to print a copy of this consent form to keep. By clicking the button below, you acknowledge that you have read the above information, that you are 18 years of age, or older and give your consent to participate in our internet-based study and consent for us to analyze the resulting data. </p> </div><p> Do you agree with the terms of the experiment as explained above? </p>",,,8726,,,2,html-button-response,,
1415,4_ramp_yellow,,,,,,,4,,,,,,,,,,,,0.0-3.0-0.0,,,,,36539,,,,,45266,,instructions_pt1,3,instructions,"[{'page_index': 0, 'viewing_time': 2907}, {'page_index': 1, 'viewing_time': 6980}, {'page_index': 2, 'viewing_time': 4106}, {'page_index': 3, 'viewing_time': 2411}, {'page_index': 4, 'viewing_time': 4678}, {'page_index': 5, 'viewing_time': 10940}, {'page_index': 6, 'viewing_time': 2814}, {'page_index': 7, 'viewing_time': 1703}]",
1415,4_ramp_yellow,True,,,,,,4,,0,,,,,,,,,,0.0-3.0-1.0-0.0,,,,0,3575,,"<p> In this experiment, you will receive a bonus payment proportional to _________.</p>",,,48841,,comprehension_quiz,4,html-button-response,,
1415,4_ramp_yellow,True,,,,,,4,,1,,,,,,,,,,0.0-3.0-1.0-1.0,,,,1,1796,,You will be asked to predict whether objects _________.,,,50637,,comprehension_quiz,5,html-button-response,,
1415,4_ramp_yellow,,,,,,,4,,,,,,,,,,,,0.0-4.0,,,,0,1174,,The experiment will now begin,,,51811,,,6,html-button-response,,
1415,4_ramp_yellow,,0,,,,,4,False,Yes,True,,3,,,,,,,0.0-5.0-0.0,,,,No,7874,,stimuli/lb_ly_r_first.jpg,,,59694,,prediction_trial,7,image-button-response,,
1415,4_ramp_yellow,,,,,,,4,False,,,,,,,,,,,0.0-5.0-1.0,,,,,,,['stimuli/lb_ly_r.mp4'],,,67951,,video_trial,8,video-button-response,,
1415,4_ramp_yellow,,,,,,,4,,,,,,,,,,,,0.0-5.0-2.0,,,,0,2129,,stimuli/lb_ly_r_last.jpg,,,70081,,feedback_trial,9,image-button-response,,
1415,4_ramp_yellow,,1,,,,,4,True,Yes,True,,2,,,,,,,0.0-6.0-0.0,,,,Yes,2891,,stimuli/hr_ly_r_first.jpg,,,72973,,prediction_trial,10,image-button-response,,
1415,4_ramp_yellow,,,,,,,4,True,,,,,,,,,,,0.0-6.0-1.0,,,,,,,['stimuli/hr_ly_r.mp4'],,,80297,,video_trial,11,video-button-response,,
1415,4_ramp_yellow,,,,,,,4,,,,,,,,,,,,0.0-6.0-2.0,,,,0,1334,,stimuli/hr_ly_r_last.jpg,,,81633,,feedback_trial,12,image-button-response,,
1415,4_ramp_yellow,,0,,,,,4,False,No,False,,1,,,,,,,0.0-7.0-0.0,,,,Yes,4205,,stimuli/lb_hb_r_first.jpg,,,85839,,prediction_trial,13,image-button-response,,
1415,4_ramp_yellow,,,,,,,4,False,,,,,,,,,,,0.0-7.0-1.0,,,,,,,['stimuli/lb_hb_r.mp4'],,,93877,,video_trial,14,video-button-response,,
1415,4_ramp_yellow,,,,,,,4,,,,,,,,,,,,0.0-7.0-2.0,,,,0,1102,,stimuli/lb_hb_r_last.jpg,,,94981,,feedback_trial,15,image-button-response,,
1415,4_ramp_yellow,,1,,,,,4,True,No,False,,0,,,,,,,0.0-8.0-0.0,,,,No,2191,,stimuli/hr_hb_r_first.jpg,,,97173,,prediction_trial,16,image-button-response,,
1415,4_ramp_yellow,,,,,,,4,True,,,,,,,,,,,0.0-8.0-1.0,,,,,,,['stimuli/hr_hb_r.mp4'],,,104554,,video_trial,17,video-button-response,,
1415,4_ramp_yellow,,,,,,,4,,,,,,,,,,,,0.0-8.0-2.0,,,,0,1075,,stimuli/hr_hb_r_last.jpg,,,105631,,feedback_trial,18,image-button-response,,
1415,4_ramp_yellow,,,,,,,4,,,,,,,,,,,,0.0-9.0,,,,0,3552,," <p> Now we will ask you to make some different predictions.</p> <p>This time, we'll ask you to select one of four images that correctly shows where the block will end up.</p>",,,109183,,surprise_quiz_instructions,19,html-button-response,,
1415,4_ramp_yellow,False,,False,,,"['<br><img src=stimuli/b_y_0.jpg style=width:384px></img', '<br><img src=stimuli/b_y_1.jpg style=width:384px></img', '<br><img src=stimuli/b_y_2.jpg style=width:384px></img', '<br><img src=stimuli/b_y_3.jpg style=width:384px></img']",4,,,,3,,,,,,,,0.0-10.0,,[0],,<br><img src=stimuli/b_y_0.jpg style=width:384px></img,19388,0,,,lb_ly_r,128573,,surprise_quiz,20,survey-multi-choice,,
1415,4_ramp_yellow,False,,False,,,"['<br><img src=stimuli/r_y_0.jpg style=width:384px></img', '<br><img src=stimuli/r_y_1.jpg style=width:384px></img', '<br><img src=stimuli/r_y_2.jpg style=width:384px></img', '<br><img src=stimuli/r_y_3.jpg style=width:384px></img']",4,,,,2,,,,,,,,0.0-11.0,,[0],,<br><img src=stimuli/r_y_0.jpg style=width:384px></img,5190,0,,,hr_ly_r,133765,,surprise_quiz,21,survey-multi-choice,,
1415,4_ramp_yellow,False,,False,,,"['<br><img src=stimuli/b_b_0.jpg style=width:384px></img', '<br><img src=stimuli/b_b_1.jpg style=width:384px></img', '<br><img src=stimuli/b_b_2.jpg style=width:384px></img', '<br><img src=stimuli/b_b_3.jpg style=width:384px></img']",4,,,,1,,,,,,,,0.0-12.0,,[0],,<br><img src=stimuli/b_b_2.jpg style=width:384px></img,7462,2,,,lb_hb_r,141229,,surprise_quiz,22,survey-multi-choice,,
1415,4_ramp_yellow,False,,True,,,"['<br><img src=stimuli/r_b_0.jpg style=width:384px></img', '<br><img src=stimuli/r_b_1.jpg style=width:384px></img', '<br><img src=stimuli/r_b_2.jpg style=width:384px></img', '<br><img src=stimuli/r_b_3.jpg style=width:384px></img']",4,,,,0,,,,,,,,0.0-13.0,,[0],,<br><img src=stimuli/r_b_1.jpg style=width:384px></img,8074,1,,,hr_hb_r,149305,,surprise_quiz,23,survey-multi-choice,,
1415,4_ramp_yellow,,,,,,,4,,,,,,,,,,,,0.0-14.0,,,,0,2074,,"<p>Thank you for participating!</p>You answered 2 out of 4 trials correctly, and will receive a $0.16 bonus.<p>Now you will complete a short survey before finishing the experiment.</p>",,,151380,,,24,html-button-response,,
1415,4_ramp_yellow,,,,56,0.16,,4,,,,,,Non-Hispanic,,,,"I looked at the size of each block, thinking that bigger blocks were more likely to be slower, and thus not cross the finish line.",Female,0.0-15.0,0.5,,White,"{'age': '56', 'race': 'White', 'gender': 'Female', 'feedback': 'I looked at the size of each block, thinking that bigger blocks were more likely to be slower, and thus not cross the finish line.', 'ethnicity': 'Non-Hispanic', 'other_race': '', 'other_gender': ''}",33584,,,,,184967,,exit_survey,25,survey-html-form,,
1243,4_ramp_yellow,,,,,,,4,,,,,,,[],[],[],,,0.0-0.0,,,,,,,,True,,478,False,,0,preload,,
1243,4_ramp_yellow,,,,,,,4,,,,,,,,,,,,0.0-1.0,,,,,,,,True,,4589,,,1,fullscreen,,
1243,4_ramp_yellow,,,,,,,4,,,,,,,,,,,,0.0-2.0,,,,0,6322,,"<p><b>Consent Form</b></p> <div style=""text-align:left;background-color:lightblue; padding:20px; max-width:900px;""><p><b>Description:</b> Welcome! You are invited to participate in a research study in cognitive psychology. You will be asked to perform various tasks on a computer which may include: looking at images or videos, listening to sounds, reading scenarios, or playing games. You may be asked a number of different questions about making judgments and intepreting people's actions. All information collected will remain confidential. </p> <p> <b>Risks and benefits:</b> Risks involved in this study are the same as those normally associated with using a computer (e.g., mild eye/arm strain). If you have any pre- existing conditions that might make reading and completing a computer-based survey strenuous for you, you should probably elect to not participate in this study. If at any time during the study you feel unable to participate because you are experiencing strain, you may end your participation without penalty. We cannot and do not guarantee or promise that you will receive any benefits from this study. Your decision whether or not to participate in this study will not affect your employment, medical care, and/or grades in school. </p><p><b>Time involvement:</b> Your participation in this experiment will take  5 minutes. </p><p><b> Payment:</b> If recruitment materials indicate payment (e.g., Prolific or other recruitment), you will receive compensation as indicated. </p><p><b>Subject's rights:</b> If you have read this notice and have decided to participate in this project, please understand your participation is voluntary and you have the right to withdraw your consent or discontinue participation at any time without penalty or loss of benefits to which you are otherwise entitled. You have the right to refuse to answer particular questions. Your individual privacy will be maintained in all published and written data resulting from the study. </p><p><b>Contact information:</b> If you have any questions, concerns or complaints about this research study, its procedures, or risks and benefits, you should ask the Protocol Director, (Professor Tobias Gerstenberg, Phone: (650) 725-2431; Email: gerstenberg@stanford.edu). </p><p><b>Independent contact:</b> If you are not satisfied with how this study is being conducted, or if you have any concerns, complaints, or general questions about the research or your rights as a participant, please contact the Stanford Institutional Review Board (IRB) to speak to someone independent of the research team via email at irb2-manager@lists.stanford.edu, or via phone at (650) 723-2480 or toll free at 1-866-680-2906. You can also write to the Stanford IRB, Stanford University, 3000 El Camino Real, Five Palo Alto Square, 4th Floor, Palo Alto, CA 94306. </p><p>You may want to print a copy of this consent form to keep. By clicking the button below, you acknowledge that you have read the above information, that you are 18 years of age, or older and give your consent to participate in our internet-based study and consent for us to analyze the resulting data. </p> </div><p> Do you agree with the terms of the experiment as explained above? </p>",,,10917,,,2,html-button-response,,
1243,4_ramp_yellow,,,,,,,4,,,,,,,,,,,,0.0-3.0-0.0,,,,,25059,,,,,35979,,instructions_pt1,3,instructions,"[{'page_index': 0, 'viewing_time': 3193}, {'page_index': 1, 'viewing_time': 3516}, {'page_index': 2, 'viewing_time': 2748}, {'page_index': 3, 'viewing_time': 1247}, {'page_index': 4, 'viewing_time': 6285}, {'page_index': 5, 'viewing_time': 2855}, {'page_index': 6, 'viewing_time': 3157}, {'page_index': 7, 'viewing_time': 2057}]",
1243,4_ramp_yellow,True,,,,,,4,,0,,,,,,,,,,0.0-3.0-1.0-0.0,,,,0,6041,,"<p> In this experiment, you will receive a bonus payment proportional to _________.</p>",,,42024,,comprehension_quiz,4,html-button-response,,
1243,4_ramp_yellow,True,,,,,,4,,1,,,,,,,,,,0.0-3.0-1.0-1.0,,,,1,2738,,You will be asked to predict whether objects _________.,,,44767,,comprehension_quiz,5,html-button-response,,
1243,4_ramp_yellow,,,,,,,4,,,,,,,,,,,,0.0-4.0,,,,0,1339,,The experiment will now begin,,,46111,,,6,html-button-response,,
1243,4_ramp_yellow,,1,,,,,4,True,Yes,True,,3,,,,,,,0.0-5.0-0.0,,,,Yes,4722,,stimuli/lb_ly_r_first.jpg,,,50864,,prediction_trial,7,image-button-response,,
1243,4_ramp_yellow,,,,,,,4,True,,,,,,,,,,,0.0-5.0-1.0,,,,,,,['stimuli/lb_ly_r.mp4'],,,59419,,video_trial,8,video-button-response,,
1243,4_ramp_yellow,,,,,,,4,,,,,,,,,,,,0.0-5.0-2.0,,,,0,5043,,stimuli/lb_ly_r_last.jpg,,,64468,,feedback_trial,9,image-button-response,,
1243,4_ramp_yellow,,0,,,,,4,False,No,False,,1,,,,,,,0.0-6.0-0.0,,,,Yes,4230,,stimuli/lb_hb_r_first.jpg,,,68705,,prediction_trial,10,image-button-response,,
1243,4_ramp_yellow,,,,,,,4,False,,,,,,,,,,,0.0-6.0-1.0,,,,,,,['stimuli/lb_hb_r.mp4'],,,76954,,video_trial,11,video-button-response,,
1243,4_ramp_yellow,,,,,,,4,,,,,,,,,,,,0.0-6.0-2.0,,,,0,5230,,stimuli/lb_hb_r_last.jpg,,,82190,,feedback_trial,12,image-button-response,,
1243,4_ramp_yellow,,1,,,,,4,True,Yes,True,,2,,,,,,,0.0-7.0-0.0,,,,Yes,1527,,stimuli/hr_ly_r_first.jpg,,,83723,,prediction_trial,13,image-button-response,,
1243,4_ramp_yellow,,,,,,,4,True,,,,,,,,,,,0.0-7.0-1.0,,,,,,,['stimuli/hr_ly_r.mp4'],,,91303,,video_trial,14,video-button-response,,
1243,4_ramp_yellow,,,,,,,4,,,,,,,,,,,,0.0-7.0-2.0,,,,0,773,,stimuli/hr_ly_r_last.jpg,,,92083,,feedback_trial,15,image-button-response,,
1243,4_ramp_yellow,,1,,,,,4,True,No,False,,0,,,,,,,0.0-8.0-0.0,,,,No,1543,,stimuli/hr_hb_r_first.jpg,,,93631,,prediction_trial,16,image-button-response,,
1243,4_ramp_yellow,,,,,,,4,True,,,,,,,,,,,0.0-8.0-1.0,,,,,,,['stimuli/hr_hb_r.mp4'],,,101160,,video_trial,17,video-button-response,,
1243,4_ramp_yellow,,,,,,,4,,,,,,,,,,,,0.0-8.0-2.0,,,,0,1221,,stimuli/hr_hb_r_last.jpg,,,102386,,feedback_trial,18,image-button-response,,
1243,4_ramp_yellow,,,,,,,4,,,,,,,,,,,,0.0-9.0,,,,0,2939,," <p> Now we will ask you to make some different predictions.</p> <p>This time, we'll ask you to select one of four images that correctly shows where the block will end up.</p>",,,105329,,surprise_quiz_instructions,19,html-button-response,,
1243,4_ramp_yellow,False,,False,,,"['<br><img src=stimuli/b_y_0.jpg style=width:307.2px></img', '<br><img src=stimuli/b_y_1.jpg style=width:307.2px></img', '<br><img src=stimuli/b_y_2.jpg style=width:307.2px></img', '<br><img src=stimuli/b_y_3.jpg style=width:307.2px></img']",4,,,,3,,,,,,,,0.0-10.0,,[0],,<br><img src=stimuli/b_y_1.jpg style=width:307.2px></img,7687,1,,,lb_ly_r,113029,,surprise_quiz,20,survey-multi-choice,,
1243,4_ramp_yellow,False,,True,,,"['<br><img src=stimuli/r_y_0.jpg style=width:307.2px></img', '<br><img src=stimuli/r_y_1.jpg style=width:307.2px></img', '<br><img src=stimuli/r_y_2.jpg style=width:307.2px></img', '<br><img src=stimuli/r_y_3.jpg style=width:307.2px></img']",4,,,,2,,,,,,,,0.0-11.0,,[0],,<br><img src=stimuli/r_y_3.jpg style=width:307.2px></img,5766,3,,,hr_ly_r,118805,,surprise_quiz,21,survey-multi-choice,,
1243,4_ramp_yellow,False,,False,,,"['<br><img src=stimuli/r_b_0.jpg style=width:307.2px></img', '<br><img src=stimuli/r_b_1.jpg style=width:307.2px></img', '<br><img src=stimuli/r_b_2.jpg style=width:307.2px></img', '<br><img src=stimuli/r_b_3.jpg style=width:307.2px></img']",4,,,,0,,,,,,,,0.0-12.0,,[0],,<br><img src=stimuli/r_b_2.jpg style=width:307.2px></img,6285,2,,,hr_hb_r,125099,,surprise_quiz,22,survey-multi-choice,,
1243,4_ramp_yellow,False,,True,,,"['<br><img src=stimuli/b_b_0.jpg style=width:307.2px></img', '<br><img src=stimuli/b_b_1.jpg style=width:307.2px></img', '<br><img src=stimuli/b_b_2.jpg style=width:307.2px></img', '<br><img src=stimuli/b_b_3.jpg style=width:307.2px></img']",4,,,,1,,,,,,,,0.0-13.0,,[0],,<br><img src=stimuli/b_b_0.jpg style=width:307.2px></img,4879,0,,,lb_hb_r,129986,,surprise_quiz,23,survey-multi-choice,,
1243,4_ramp_yellow,,,,,,,4,,,,,,,,,,,,0.0-14.0,,,,0,4062,,"<p>Thank you for participating!</p>You answered 3 out of 4 trials correctly, and will receive a $0.24 bonus.<p>Now you will complete a short survey before finishing the experiment.</p>",,,134056,,,24,html-button-response,,
1243,4_ramp_yellow,,,,23,0.24,,4,,,,,,Non-Hispanic,,,,,Female,0.0-15.0,0.75,,White,"{'age': '23', 'race': 'White', 'gender': 'Female', 'feedback': '', 'ethnicity': 'Non-Hispanic', 'other_race': '', 'other_gender': ''}",14037,,,,,148101,,exit_survey,25,survey-html-form,,
1419,4_ramp_yellow,,,,,,,4,,,,,,,[],[],[],,,0.0-0.0,,,,,,,,True,,2561,False,,0,preload,,
1419,4_ramp_yellow,,,,,,,4,,,,,,,,,,,,0.0-1.0,,,,,,,,True,,16646,,,1,fullscreen,,
1419,4_ramp_yellow,,,,,,,4,,,,,,,,,,,,0.0-2.0,,,,0,5962,,"<p><b>Consent Form</b></p> <div style=""text-align:left;background-color:lightblue; padding:20px; max-width:900px;""><p><b>Description:</b> Welcome! You are invited to participate in a research study in cognitive psychology. You will be asked to perform various tasks on a computer which may include: looking at images or videos, listening to sounds, reading scenarios, or playing games. You may be asked a number of different questions about making judgments and intepreting people's actions. All information collected will remain confidential. </p> <p> <b>Risks and benefits:</b> Risks involved in this study are the same as those normally associated with using a computer (e.g., mild eye/arm strain). If you have any pre- existing conditions that might make reading and completing a computer-based survey strenuous for you, you should probably elect to not participate in this study. If at any time during the study you feel unable to participate because you are experiencing strain, you may end your participation without penalty. We cannot and do not guarantee or promise that you will receive any benefits from this study. Your decision whether or not to participate in this study will not affect your employment, medical care, and/or grades in school. </p><p><b>Time involvement:</b> Your participation in this experiment will take  5 minutes. </p><p><b> Payment:</b> If recruitment materials indicate payment (e.g., Prolific or other recruitment), you will receive compensation as indicated. </p><p><b>Subject's rights:</b> If you have read this notice and have decided to participate in this project, please understand your participation is voluntary and you have the right to withdraw your consent or discontinue participation at any time without penalty or loss of benefits to which you are otherwise entitled. You have the right to refuse to answer particular questions. Your individual privacy will be maintained in all published and written data resulting from the study. </p><p><b>Contact information:</b> If you have any questions, concerns or complaints about this research study, its procedures, or risks and benefits, you should ask the Protocol Director, (Professor Tobias Gerstenberg, Phone: (650) 725-2431; Email: gerstenberg@stanford.edu). </p><p><b>Independent contact:</b> If you are not satisfied with how this study is being conducted, or if you have any concerns, complaints, or general questions about the research or your rights as a participant, please contact the Stanford Institutional Review Board (IRB) to speak to someone independent of the research team via email at irb2-manager@lists.stanford.edu, or via phone at (650) 723-2480 or toll free at 1-866-680-2906. You can also write to the Stanford IRB, Stanford University, 3000 El Camino Real, Five Palo Alto Square, 4th Floor, Palo Alto, CA 94306. </p><p>You may want to print a copy of this consent form to keep. By clicking the button below, you acknowledge that you have read the above information, that you are 18 years of age, or older and give your consent to participate in our internet-based study and consent for us to analyze the resulting data. </p> </div><p> Do you agree with the terms of the experiment as explained above? </p>",,,22614,,,2,html-button-response,,
1419,4_ramp_yellow,,,,,,,4,,,,,,,,,,,,0.0-3.0-0.0,,,,,44637,,,,,67259,,instructions_pt1,3,instructions,"[{'page_index': 0, 'viewing_time': 5376}, {'page_index': 1, 'viewing_time': 6354}, {'page_index': 2, 'viewing_time': 3737}, {'page_index': 3, 'viewing_time': 2759}, {'page_index': 4, 'viewing_time': 7761}, {'page_index': 5, 'viewing_time': 10105}, {'page_index': 6, 'viewing_time': 4344}, {'page_index': 7, 'viewing_time': 4201}]",
1419,4_ramp_yellow,True,,,,,,4,,0,,,,,,,,,,0.0-3.0-1.0-0.0,,,,0,9230,,"<p> In this experiment, you will receive a bonus payment proportional to _________.</p>",,,76494,,comprehension_quiz,4,html-button-response,,
1419,4_ramp_yellow,True,,,,,,4,,1,,,,,,,,,,0.0-3.0-1.0-1.0,,,,1,4751,,You will be asked to predict whether objects _________.,,,81254,,comprehension_quiz,5,html-button-response,,
1419,4_ramp_yellow,,,,,,,4,,,,,,,,,,,,0.0-4.0,,,,0,1706,,The experiment will now begin,,,82967,,,6,html-button-response,,
1419,4_ramp_yellow,,0,,,,,4,False,Yes,True,,2,,,,,,,0.0-5.0-0.0,,,,No,4660,,stimuli/hr_ly_r_first.jpg,,,87720,,prediction_trial,7,image-button-response,,
1419,4_ramp_yellow,,,,,,,4,False,,,,,,,,,,,0.0-5.0-1.0,,,,,,,['stimuli/hr_ly_r.mp4'],,,95329,,video_trial,8,video-button-response,,
1419,4_ramp_yellow,,,,,,,4,,,,,,,,,,,,0.0-5.0-2.0,,,,0,1817,,stimuli/hr_ly_r_last.jpg,,,97232,,feedback_trial,9,image-button-response,,
1419,4_ramp_yellow,,1,,,,,4,True,No,False,,0,,,,,,,0.0-6.0-0.0,,,,No,2324,,stimuli/hr_hb_r_first.jpg,,,99649,,prediction_trial,10,image-button-response,,
1419,4_ramp_yellow,,,,,,,4,True,,,,,,,,,,,0.0-6.0-1.0,,,,,,,['stimuli/hr_hb_r.mp4'],,,107143,,video_trial,11,video-button-response,,
1419,4_ramp_yellow,,,,,,,4,,,,,,,,,,,,0.0-6.0-2.0,,,,0,1705,,stimuli/hr_hb_r_last.jpg,,,108937,,feedback_trial,12,image-button-response,,
1419,4_ramp_yellow,,1,,,,,4,True,Yes,True,,3,,,,,,,0.0-7.0-0.0,,,,Yes,934,,stimuli/lb_ly_r_first.jpg,,,109963,,prediction_trial,13,image-button-response,,
1419,4_ramp_yellow,,,,,,,4,True,,,,,,,,,,,0.0-7.0-1.0,,,,,,,['stimuli/lb_ly_r.mp4'],,,118314,,video_trial,14,video-button-response,,
1419,4_ramp_yellow,,,,,,,4,,,,,,,,,,,,0.0-7.0-2.0,,,,0,1359,,stimuli/lb_ly_r_last.jpg,,,119762,,feedback_trial,15,image-button-response,,
1419,4_ramp_yellow,,0,,,,,4,False,No,False,,1,,,,,,,0.0-8.0-0.0,,,,Yes,3912,,stimuli/lb_hb_r_first.jpg,,,123765,,prediction_trial,16,image-button-response,,
1419,4_ramp_yellow,,,,,,,4,False,,,,,,,,,,,0.0-8.0-1.0,,,,,,,['stimuli/lb_hb_r.mp4'],,,131900,,video_trial,17,video-button-response,,
1419,4_ramp_yellow,,,,,,,4,,,,,,,,,,,,0.0-8.0-2.0,,,,0,1305,,stimuli/lb_hb_r_last.jpg,,,133292,,feedback_trial,18,image-button-response,,
1419,4_ramp_yellow,,,,,,,4,,,,,,,,,,,,0.0-9.0,,,,0,11134,," <p> Now we will ask you to make some different predictions.</p> <p>This time, we'll ask you to select one of four images that correctly shows where the block will end up.</p>",,,144430,,surprise_quiz_instructions,19,html-button-response,,
1419,4_ramp_yellow,True,,True,,,"['<br><img src=stimuli/b_b_0.jpg style=width:384px></img', '<br><img src=stimuli/b_b_1.jpg style=width:384px></img', '<br><img src=stimuli/b_b_2.jpg style=width:384px></img', '<br><img src=stimuli/b_b_3.jpg style=width:384px></img']",4,,,,1,,,,,,,,0.0-10.0,,[0],,<br><img src=stimuli/b_b_1.jpg style=width:384px></img,6546,1,,,lb_hb_r,150982,,surprise_quiz,20,survey-multi-choice,,
1419,4_ramp_yellow,False,,True,,,"['<br><img src=stimuli/b_y_0.jpg style=width:384px></img', '<br><img src=stimuli/b_y_1.jpg style=width:384px></img', '<br><img src=stimuli/b_y_2.jpg style=width:384px></img', '<br><img src=stimuli/b_y_3.jpg style=width:384px></img']",4,,,,3,,,,,,,,0.0-11.0,,[0],,<br><img src=stimuli/b_y_2.jpg style=width:384px></img,5303,2,,,lb_ly_r,156291,,surprise_quiz,21,survey-multi-choice,,
1419,4_ramp_yellow,True,,True,,,"['<br><img src=stimuli/r_y_0.jpg style=width:384px></img', '<br><img src=stimuli/r_y_1.jpg style=width:384px></img', '<br><img src=stimuli/r_y_2.jpg style=width:384px></img', '<br><img src=stimuli/r_y_3.jpg style=width:384px></img']",4,,,,2,,,,,,,,0.0-12.0,,[0],,<br><img src=stimuli/r_y_2.jpg style=width:384px></img,6212,2,,,hr_ly_r,162508,,surprise_quiz,22,survey-multi-choice,,
1419,4_ramp_yellow,False,,False,,,"['<br><img src=stimuli/r_b_0.jpg style=width:384px></img', '<br><img src=stimuli/r_b_1.jpg style=width:384px></img', '<br><img src=stimuli/r_b_2.jpg style=width:384px></img', '<br><img src=stimuli/r_b_3.jpg style=width:384px></img']",4,,,,0,,,,,,,,0.0-13.0,,[0],,<br><img src=stimuli/r_b_3.jpg style=width:384px></img,4441,3,,,hr_hb_r,166956,,surprise_quiz,23,survey-multi-choice,,
1419,4_ramp_yellow,,,,,,,4,,,,,,,,,,,,0.0-14.0,,,,0,5011,,"<p>Thank you for participating!</p>You answered 2 out of 4 trials correctly, and will receive a $0.16 bonus.<p>Now you will complete a short survey before finishing the experiment.</p>",,,171972,,,24,html-button-response,,
1419,4_ramp_yellow,,,,65,0.16,,4,,,,,,Non-Hispanic,,,,I just guessed,Male,0.0-15.0,0.5,,White,"{'age': '65', 'race': 'White', 'gender': 'Male', 'feedback': 'I just guessed', 'ethnicity': 'Non-Hispanic', 'other_race': '', 'other_gender': ''}",26313,,,,,198300,,exit_survey,25,survey-html-form,,
1364,4_ramp_yellow,,,,,,,4,,,,,,,[],[],[],,,0.0-0.0,,,,,,,,True,,305,False,,0,preload,,
1364,4_ramp_yellow,,,,,,,4,,,,,,,,,,,,0.0-1.0,,,,,,,,True,,2746,,,1,fullscreen,,
1364,4_ramp_yellow,,,,,,,4,,,,,,,,,,,,0.0-2.0,,,,0,2013,,"<p><b>Consent Form</b></p> <div style=""text-align:left;background-color:lightblue; padding:20px; max-width:900px;""><p><b>Description:</b> Welcome! You are invited to participate in a research study in cognitive psychology. You will be asked to perform various tasks on a computer which may include: looking at images or videos, listening to sounds, reading scenarios, or playing games. You may be asked a number of different questions about making judgments and intepreting people's actions. All information collected will remain confidential. </p> <p> <b>Risks and benefits:</b> Risks involved in this study are the same as those normally associated with using a computer (e.g., mild eye/arm strain). If you have any pre- existing conditions that might make reading and completing a computer-based survey strenuous for you, you should probably elect to not participate in this study. If at any time during the study you feel unable to participate because you are experiencing strain, you may end your participation without penalty. We cannot and do not guarantee or promise that you will receive any benefits from this study. Your decision whether or not to participate in this study will not affect your employment, medical care, and/or grades in school. </p><p><b>Time involvement:</b> Your participation in this experiment will take  5 minutes. </p><p><b> Payment:</b> If recruitment materials indicate payment (e.g., Prolific or other recruitment), you will receive compensation as indicated. </p><p><b>Subject's rights:</b> If you have read this notice and have decided to participate in this project, please understand your participation is voluntary and you have the right to withdraw your consent or discontinue participation at any time without penalty or loss of benefits to which you are otherwise entitled. You have the right to refuse to answer particular questions. Your individual privacy will be maintained in all published and written data resulting from the study. </p><p><b>Contact information:</b> If you have any questions, concerns or complaints about this research study, its procedures, or risks and benefits, you should ask the Protocol Director, (Professor Tobias Gerstenberg, Phone: (650) 725-2431; Email: gerstenberg@stanford.edu). </p><p><b>Independent contact:</b> If you are not satisfied with how this study is being conducted, or if you have any concerns, complaints, or general questions about the research or your rights as a participant, please contact the Stanford Institutional Review Board (IRB) to speak to someone independent of the research team via email at irb2-manager@lists.stanford.edu, or via phone at (650) 723-2480 or toll free at 1-866-680-2906. You can also write to the Stanford IRB, Stanford University, 3000 El Camino Real, Five Palo Alto Square, 4th Floor, Palo Alto, CA 94306. </p><p>You may want to print a copy of this consent form to keep. By clicking the button below, you acknowledge that you have read the above information, that you are 18 years of age, or older and give your consent to participate in our internet-based study and consent for us to analyze the resulting data. </p> </div><p> Do you agree with the terms of the experiment as explained above? </p>",,,4760,,,2,html-button-response,,
1364,4_ramp_yellow,,,,,,,4,,,,,,,,,,,,0.0-3.0-0.0,,,,,44272,,,,,49031,,instructions_pt1,3,instructions,"[{'page_index': 0, 'viewing_time': 4279}, {'page_index': 1, 'viewing_time': 5560}, {'page_index': 2, 'viewing_time': 4368}, {'page_index': 3, 'viewing_time': 1840}, {'page_index': 4, 'viewing_time': 2776}, {'page_index': 5, 'viewing_time': 2856}, {'page_index': 6, 'viewing_time': 3296}, {'page_index': 7, 'viewing_time': 2176}, {'page_index': 6, 'viewing_time': 2176}, {'page_index': 7, 'viewing_time': 1440}, {'page_index': 6, 'viewing_time': 520}, {'page_index': 5, 'viewing_time': 10232}, {'page_index': 6, 'viewing_time': 1832}, {'page_index': 7, 'viewing_time': 920}]",
1364,4_ramp_yellow,True,,,,,,4,,0,,,,,,,,,,0.0-3.0-1.0-0.0,,,,0,2751,,"<p> In this experiment, you will receive a bonus payment proportional to _________.</p>",,,51783,,comprehension_quiz,4,html-button-response,,
1364,4_ramp_yellow,True,,,,,,4,,1,,,,,,,,,,0.0-3.0-1.0-1.0,,,,1,1735,,You will be asked to predict whether objects _________.,,,53519,,comprehension_quiz,5,html-button-response,,
1364,4_ramp_yellow,,,,,,,4,,,,,,,,,,,,0.0-4.0,,,,0,919,,The experiment will now begin,,,54439,,,6,html-button-response,,
1364,4_ramp_yellow,,0,,,,,4,False,No,False,,0,,,,,,,0.0-5.0-0.0,,,,Yes,4716,,stimuli/hr_hb_r_first.jpg,,,59160,,prediction_trial,7,image-button-response,,
1364,4_ramp_yellow,,,,,,,4,False,,,,,,,,,,,0.0-5.0-1.0,,,,,,,['stimuli/hr_hb_r.mp4'],,,66557,,video_trial,8,video-button-response,,
1364,4_ramp_yellow,,,,,,,4,,,,,,,,,,,,0.0-5.0-2.0,,,,0,1354,,stimuli/hr_hb_r_last.jpg,,,67911,,feedback_trial,9,image-button-response,,
1364,4_ramp_yellow,,1,,,,,4,True,Yes,True,,2,,,,,,,0.0-6.0-0.0,,,,Yes,3399,,stimuli/hr_ly_r_first.jpg,,,71311,,prediction_trial,10,image-button-response,,
1364,4_ramp_yellow,,,,,,,4,True,,,,,,,,,,,0.0-6.0-1.0,,,,,,,['stimuli/hr_ly_r.mp4'],,,78663,,video_trial,11,video-button-response,,
1364,4_ramp_yellow,,,,,,,4,,,,,,,,,,,,0.0-6.0-2.0,,,,0,1519,,stimuli/hr_ly_r_last.jpg,,,80183,,feedback_trial,12,image-button-response,,
1364,4_ramp_yellow,,1,,,,,4,True,No,False,,1,,,,,,,0.0-7.0-0.0,,,,No,2087,,stimuli/lb_hb_r_first.jpg,,,82272,,prediction_trial,13,image-button-response,,
1364,4_ramp_yellow,,,,,,,4,True,,,,,,,,,,,0.0-7.0-1.0,,,,,,,['stimuli/lb_hb_r.mp4'],,,90315,,video_trial,14,video-button-response,,
1364,4_ramp_yellow,,,,,,,4,,,,,,,,,,,,0.0-7.0-2.0,,,,0,1155,,stimuli/lb_hb_r_last.jpg,,,91471,,feedback_trial,15,image-button-response,,
1364,4_ramp_yellow,,1,,,,,4,True,Yes,True,,3,,,,,,,0.0-8.0-0.0,,,,Yes,3615,,stimuli/lb_ly_r_first.jpg,,,95087,,prediction_trial,16,image-button-response,,
1364,4_ramp_yellow,,,,,,,4,True,,,,,,,,,,,0.0-8.0-1.0,,,,,,,['stimuli/lb_ly_r.mp4'],,,103348,,video_trial,17,video-button-response,,
1364,4_ramp_yellow,,,,,,,4,,,,,,,,,,,,0.0-8.0-2.0,,,,0,1578,,stimuli/lb_ly_r_last.jpg,,,104927,,feedback_trial,18,image-button-response,,
1364,4_ramp_yellow,,,,,,,4,,,,,,,,,,,,0.0-9.0,,,,0,3840,," <p> Now we will ask you to make some different predictions.</p> <p>This time, we'll ask you to select one of four images that correctly shows where the block will end up.</p>",,,108768,,surprise_quiz_instructions,19,html-button-response,,
1364,4_ramp_yellow,True,,True,,,"['<br><img src=stimuli/r_y_0.jpg style=width:512px></img', '<br><img src=stimuli/r_y_1.jpg style=width:512px></img', '<br><img src=stimuli/r_y_2.jpg style=width:512px></img', '<br><img src=stimuli/r_y_3.jpg style=width:512px></img']",4,,,,2,,,,,,,,0.0-10.0,,[0],,<br><img src=stimuli/r_y_2.jpg style=width:512px></img,10239,2,,,hr_ly_r,119009,,surprise_quiz,20,survey-multi-choice,,
1364,4_ramp_yellow,True,,True,,,"['<br><img src=stimuli/b_y_0.jpg style=width:512px></img', '<br><img src=stimuli/b_y_1.jpg style=width:512px></img', '<br><img src=stimuli/b_y_2.jpg style=width:512px></img', '<br><img src=stimuli/b_y_3.jpg style=width:512px></img']",4,,,,3,,,,,,,,0.0-11.0,,[0],,<br><img src=stimuli/b_y_3.jpg style=width:512px></img,4422,3,,,lb_ly_r,123432,,surprise_quiz,21,survey-multi-choice,,
1364,4_ramp_yellow,True,,True,,,"['<br><img src=stimuli/r_b_0.jpg style=width:512px></img', '<br><img src=stimuli/r_b_1.jpg style=width:512px></img', '<br><img src=stimuli/r_b_2.jpg style=width:512px></img', '<br><img src=stimuli/r_b_3.jpg style=width:512px></img']",4,,,,0,,,,,,,,0.0-12.0,,[0],,<br><img src=stimuli/r_b_0.jpg style=width:512px></img,3415,0,,,hr_hb_r,126848,,surprise_quiz,22,survey-multi-choice,,
1364,4_ramp_yellow,True,,True,,,"['<br><img src=stimuli/b_b_0.jpg style=width:512px></img', '<br><img src=stimuli/b_b_1.jpg style=width:512px></img', '<br><img src=stimuli/b_b_2.jpg style=width:512px></img', '<br><img src=stimuli/b_b_3.jpg style=width:512px></img']",4,,,,1,,,,,,,,0.0-13.0,,[0],,<br><img src=stimuli/b_b_1.jpg style=width:512px></img,4511,1,,,lb_hb_r,131360,,surprise_quiz,23,survey-multi-choice,,
1364,4_ramp_yellow,,,,,,,4,,,,,,,,,,,,0.0-14.0,,,,0,2462,,"<p>Thank you for participating!</p>You answered 3 out of 4 trials correctly, and will receive a $0.24 bonus.<p>Now you will complete a short survey before finishing the experiment.</p>",,,133824,,,24,html-button-response,,
1364,4_ramp_yellow,,,,26,0.24,,4,,,,,,Non-Hispanic,,,,The color of the block and ramp in comparison to the previous trial and result.,Female,0.0-15.0,0.75,,Asian,"{'age': '26', 'race': 'Asian', 'gender': 'Female', 'feedback': 'The color of the block and ramp in comparison to the previous trial and result.', 'ethnicity': 'Non-Hispanic', 'other_race': '', 'other_gender': ''}",37008,,,,,170832,,exit_survey,25,survey-html-form,,
1372,4_ramp_yellow,,,,,,,4,,,,,,,[],[],[],,,0.0-0.0,,,,,,,,True,,2634,False,,0,preload,,
1372,4_ramp_yellow,,,,,,,4,,,,,,,,,,,,0.0-1.0,,,,,,,,True,,5624,,,1,fullscreen,,
1372,4_ramp_yellow,,,,,,,4,,,,,,,,,,,,0.0-2.0,,,,0,6723,,"<p><b>Consent Form</b></p> <div style=""text-align:left;background-color:lightblue; padding:20px; max-width:900px;""><p><b>Description:</b> Welcome! You are invited to participate in a research study in cognitive psychology. You will be asked to perform various tasks on a computer which may include: looking at images or videos, listening to sounds, reading scenarios, or playing games. You may be asked a number of different questions about making judgments and intepreting people's actions. All information collected will remain confidential. </p> <p> <b>Risks and benefits:</b> Risks involved in this study are the same as those normally associated with using a computer (e.g., mild eye/arm strain). If you have any pre- existing conditions that might make reading and completing a computer-based survey strenuous for you, you should probably elect to not participate in this study. If at any time during the study you feel unable to participate because you are experiencing strain, you may end your participation without penalty. We cannot and do not guarantee or promise that you will receive any benefits from this study. Your decision whether or not to participate in this study will not affect your employment, medical care, and/or grades in school. </p><p><b>Time involvement:</b> Your participation in this experiment will take  5 minutes. </p><p><b> Payment:</b> If recruitment materials indicate payment (e.g., Prolific or other recruitment), you will receive compensation as indicated. </p><p><b>Subject's rights:</b> If you have read this notice and have decided to participate in this project, please understand your participation is voluntary and you have the right to withdraw your consent or discontinue participation at any time without penalty or loss of benefits to which you are otherwise entitled. You have the right to refuse to answer particular questions. Your individual privacy will be maintained in all published and written data resulting from the study. </p><p><b>Contact information:</b> If you have any questions, concerns or complaints about this research study, its procedures, or risks and benefits, you should ask the Protocol Director, (Professor Tobias Gerstenberg, Phone: (650) 725-2431; Email: gerstenberg@stanford.edu). </p><p><b>Independent contact:</b> If you are not satisfied with how this study is being conducted, or if you have any concerns, complaints, or general questions about the research or your rights as a participant, please contact the Stanford Institutional Review Board (IRB) to speak to someone independent of the research team via email at irb2-manager@lists.stanford.edu, or via phone at (650) 723-2480 or toll free at 1-866-680-2906. You can also write to the Stanford IRB, Stanford University, 3000 El Camino Real, Five Palo Alto Square, 4th Floor, Palo Alto, CA 94306. </p><p>You may want to print a copy of this consent form to keep. By clicking the button below, you acknowledge that you have read the above information, that you are 18 years of age, or older and give your consent to participate in our internet-based study and consent for us to analyze the resulting data. </p> </div><p> Do you agree with the terms of the experiment as explained above? </p>",,,12349,,,2,html-button-response,,
1372,4_ramp_yellow,,,,,,,4,,,,,,,,,,,,0.0-3.0-0.0,,,,,31343,,,,,43693,,instructions_pt1,3,instructions,"[{'page_index': 0, 'viewing_time': 3246}, {'page_index': 1, 'viewing_time': 5258}, {'page_index': 2, 'viewing_time': 3585}, {'page_index': 3, 'viewing_time': 1913}, {'page_index': 4, 'viewing_time': 5272}, {'page_index': 5, 'viewing_time': 4447}, {'page_index': 6, 'viewing_time': 4440}, {'page_index': 7, 'viewing_time': 3181}]",
1372,4_ramp_yellow,True,,,,,,4,,0,,,,,,,,,,0.0-3.0-1.0-0.0,,,,0,4596,,"<p> In this experiment, you will receive a bonus payment proportional to _________.</p>",,,48289,,comprehension_quiz,4,html-button-response,,
1372,4_ramp_yellow,True,,,,,,4,,1,,,,,,,,,,0.0-3.0-1.0-1.0,,,,1,2624,,You will be asked to predict whether objects _________.,,,50915,,comprehension_quiz,5,html-button-response,,
1372,4_ramp_yellow,,,,,,,4,,,,,,,,,,,,0.0-4.0,,,,0,1198,,The experiment will now begin,,,52114,,,6,html-button-response,,
1372,4_ramp_yellow,,0,,,,,4,False,Yes,True,,2,,,,,,,0.0-5.0-0.0,,,,No,7812,,stimuli/hr_ly_r_first.jpg,,,59937,,prediction_trial,7,image-button-response,,
1372,4_ramp_yellow,,,,,,,4,False,,,,,,,,,,,0.0-5.0-1.0,,,,,,,['stimuli/hr_ly_r.mp4'],,,67426,,video_trial,8,video-button-response,,
1372,4_ramp_yellow,,,,,,,4,,,,,,,,,,,,0.0-5.0-2.0,,,,0,2627,,stimuli/hr_ly_r_last.jpg,,,70055,,feedback_trial,9,image-button-response,,
1372,4_ramp_yellow,,1,,,,,4,True,Yes,True,,3,,,,,,,0.0-6.0-0.0,,,,Yes,1979,,stimuli/lb_ly_r_first.jpg,,,72035,,prediction_trial,10,image-button-response,,
1372,4_ramp_yellow,,,,,,,4,True,,,,,,,,,,,0.0-6.0-1.0,,,,,,,['stimuli/lb_ly_r.mp4'],,,80337,,video_trial,11,video-button-response,,
1372,4_ramp_yellow,,,,,,,4,,,,,,,,,,,,0.0-6.0-2.0,,,,0,2273,,stimuli/lb_ly_r_last.jpg,,,82612,,feedback_trial,12,image-button-response,,
1372,4_ramp_yellow,,0,,,,,4,False,No,False,,0,,,,,,,0.0-7.0-0.0,,,,Yes,2646,,stimuli/hr_hb_r_first.jpg,,,85259,,prediction_trial,13,image-button-response,,
1372,4_ramp_yellow,,,,,,,4,False,,,,,,,,,,,0.0-7.0-1.0,,,,,,,['stimuli/hr_hb_r.mp4'],,,92656,,video_trial,14,video-button-response,,
1372,4_ramp_yellow,,,,,,,4,,,,,,,,,,,,0.0-7.0-2.0,,,,0,1242,,stimuli/hr_hb_r_last.jpg,,,93899,,feedback_trial,15,image-button-response,,
1372,4_ramp_yellow,,1,,,,,4,True,No,False,,1,,,,,,,0.0-8.0-0.0,,,,No,1769,,stimuli/lb_hb_r_first.jpg,,,95669,,prediction_trial,16,image-button-response,,
1372,4_ramp_yellow,,,,,,,4,True,,,,,,,,,,,0.0-8.0-1.0,,,,,,,['stimuli/lb_hb_r.mp4'],,,103754,,video_trial,17,video-button-response,,
1372,4_ramp_yellow,,,,,,,4,,,,,,,,,,,,0.0-8.0-2.0,,,,0,1987,,stimuli/lb_hb_r_last.jpg,,,105742,,feedback_trial,18,image-button-response,,
1372,4_ramp_yellow,,,,,,,4,,,,,,,,,,,,0.0-9.0,,,,0,3801,," <p> Now we will ask you to make some different predictions.</p> <p>This time, we'll ask you to select one of four images that correctly shows where the block will end up.</p>",,,109545,,surprise_quiz_instructions,19,html-button-response,,
1372,4_ramp_yellow,False,,False,,,"['<br><img src=stimuli/b_y_0.jpg style=width:307.2px></img', '<br><img src=stimuli/b_y_1.jpg style=width:307.2px></img', '<br><img src=stimuli/b_y_2.jpg style=width:307.2px></img', '<br><img src=stimuli/b_y_3.jpg style=width:307.2px></img']",4,,,,3,,,,,,,,0.0-10.0,,[0],,<br><img src=stimuli/b_y_1.jpg style=width:307.2px></img,8052,1,,,lb_ly_r,117600,,surprise_quiz,20,survey-multi-choice,,
1372,4_ramp_yellow,True,,True,,,"['<br><img src=stimuli/r_b_0.jpg style=width:307.2px></img', '<br><img src=stimuli/r_b_1.jpg style=width:307.2px></img', '<br><img src=stimuli/r_b_2.jpg style=width:307.2px></img', '<br><img src=stimuli/r_b_3.jpg style=width:307.2px></img']",4,,,,0,,,,,,,,0.0-11.0,,[0],,<br><img src=stimuli/r_b_0.jpg style=width:307.2px></img,7491,0,,,hr_hb_r,125099,,surprise_quiz,21,survey-multi-choice,,
1372,4_ramp_yellow,False,,False,,,"['<br><img src=stimuli/b_b_0.jpg style=width:307.2px></img', '<br><img src=stimuli/b_b_1.jpg style=width:307.2px></img', '<br><img src=stimuli/b_b_2.jpg style=width:307.2px></img', '<br><img src=stimuli/b_b_3.jpg style=width:307.2px></img']",4,,,,1,,,,,,,,0.0-12.0,,[0],,<br><img src=stimuli/b_b_3.jpg style=width:307.2px></img,15644,3,,,lb_hb_r,140745,,surprise_quiz,22,survey-multi-choice,,
1372,4_ramp_yellow,True,,True,,,"['<br><img src=stimuli/r_y_0.jpg style=width:307.2px></img', '<br><img src=stimuli/r_y_1.jpg style=width:307.2px></img', '<br><img src=stimuli/r_y_2.jpg style=width:307.2px></img', '<br><img src=stimuli/r_y_3.jpg style=width:307.2px></img']",4,,,,2,,,,,,,,0.0-13.0,,[0],,<br><img src=stimuli/r_y_2.jpg style=width:307.2px></img,4190,2,,,hr_ly_r,144937,,surprise_quiz,23,survey-multi-choice,,
1372,4_ramp_yellow,,,,,,,4,,,,,,,,,,,,0.0-14.0,,,,0,2916,,"<p>Thank you for participating!</p>You answered 2 out of 4 trials correctly, and will receive a $0.16 bonus.<p>Now you will complete a short survey before finishing the experiment.</p>",,,147855,,,24,html-button-response,,
1372,4_ramp_yellow,,,,52,0.16,,4,,,,,,Non-Hispanic,,,,the previous trial,Female,0.0-15.0,0.5,,White,"{'age': '52', 'race': 'White', 'gender': 'Female', 'feedback': 'the previous trial', 'ethnicity': 'Non-Hispanic', 'other_race': '', 'other_gender': ''}",21322,,,,,169178,,exit_survey,25,survey-html-form,,
1401,4_ramp_yellow,,,,,,,4,,,,,,,[],[],[],,,0.0-0.0,,,,,,,,True,,184,False,,0,preload,,
1401,4_ramp_yellow,,,,,,,4,,,,,,,,,,,,0.0-1.0,,,,,,,,True,,3571,,,1,fullscreen,,
1401,4_ramp_yellow,,,,,,,4,,,,,,,,,,,,0.0-2.0,,,,0,2324,,"<p><b>Consent Form</b></p> <div style=""text-align:left;background-color:lightblue; padding:20px; max-width:900px;""><p><b>Description:</b> Welcome! You are invited to participate in a research study in cognitive psychology. You will be asked to perform various tasks on a computer which may include: looking at images or videos, listening to sounds, reading scenarios, or playing games. You may be asked a number of different questions about making judgments and intepreting people's actions. All information collected will remain confidential. </p> <p> <b>Risks and benefits:</b> Risks involved in this study are the same as those normally associated with using a computer (e.g., mild eye/arm strain). If you have any pre- existing conditions that might make reading and completing a computer-based survey strenuous for you, you should probably elect to not participate in this study. If at any time during the study you feel unable to participate because you are experiencing strain, you may end your participation without penalty. We cannot and do not guarantee or promise that you will receive any benefits from this study. Your decision whether or not to participate in this study will not affect your employment, medical care, and/or grades in school. </p><p><b>Time involvement:</b> Your participation in this experiment will take  5 minutes. </p><p><b> Payment:</b> If recruitment materials indicate payment (e.g., Prolific or other recruitment), you will receive compensation as indicated. </p><p><b>Subject's rights:</b> If you have read this notice and have decided to participate in this project, please understand your participation is voluntary and you have the right to withdraw your consent or discontinue participation at any time without penalty or loss of benefits to which you are otherwise entitled. You have the right to refuse to answer particular questions. Your individual privacy will be maintained in all published and written data resulting from the study. </p><p><b>Contact information:</b> If you have any questions, concerns or complaints about this research study, its procedures, or risks and benefits, you should ask the Protocol Director, (Professor Tobias Gerstenberg, Phone: (650) 725-2431; Email: gerstenberg@stanford.edu). </p><p><b>Independent contact:</b> If you are not satisfied with how this study is being conducted, or if you have any concerns, complaints, or general questions about the research or your rights as a participant, please contact the Stanford Institutional Review Board (IRB) to speak to someone independent of the research team via email at irb2-manager@lists.stanford.edu, or via phone at (650) 723-2480 or toll free at 1-866-680-2906. You can also write to the Stanford IRB, Stanford University, 3000 El Camino Real, Five Palo Alto Square, 4th Floor, Palo Alto, CA 94306. </p><p>You may want to print a copy of this consent form to keep. By clicking the button below, you acknowledge that you have read the above information, that you are 18 years of age, or older and give your consent to participate in our internet-based study and consent for us to analyze the resulting data. </p> </div><p> Do you agree with the terms of the experiment as explained above? </p>",,,5901,,,2,html-button-response,,
1401,4_ramp_yellow,,,,,,,4,,,,,,,,,,,,0.0-3.0-0.0,,,,,35612,,,,,41515,,instructions_pt1,3,instructions,"[{'page_index': 0, 'viewing_time': 5524}, {'page_index': 1, 'viewing_time': 2846}, {'page_index': 2, 'viewing_time': 5020}, {'page_index': 3, 'viewing_time': 3648}, {'page_index': 4, 'viewing_time': 6379}, {'page_index': 5, 'viewing_time': 6423}, {'page_index': 6, 'viewing_time': 4156}, {'page_index': 7, 'viewing_time': 1614}]",
1401,4_ramp_yellow,True,,,,,,4,,0,,,,,,,,,,0.0-3.0-1.0-0.0,,,,0,6703,,"<p> In this experiment, you will receive a bonus payment proportional to _________.</p>",,,48220,,comprehension_quiz,4,html-button-response,,
1401,4_ramp_yellow,True,,,,,,4,,1,,,,,,,,,,0.0-3.0-1.0-1.0,,,,1,3785,,You will be asked to predict whether objects _________.,,,52006,,comprehension_quiz,5,html-button-response,,
1401,4_ramp_yellow,,,,,,,4,,,,,,,,,,,,0.0-4.0,,,,0,1000,,The experiment will now begin,,,53009,,,6,html-button-response,,
1401,4_ramp_yellow,,1,,,,,4,True,Yes,True,,3,,,,,,,0.0-5.0-0.0,,,,Yes,4229,,stimuli/lb_ly_r_first.jpg,,,57283,,prediction_trial,7,image-button-response,,
1401,4_ramp_yellow,,,,,,,4,True,,,,,,,,,,,0.0-5.0-1.0,,,,,,,['stimuli/lb_ly_r.mp4'],,,65777,,video_trial,8,video-button-response,,
1401,4_ramp_yellow,,,,,,,4,,,,,,,,,,,,0.0-5.0-2.0,,,,0,2290,,stimuli/lb_ly_r_last.jpg,,,68109,,feedback_trial,9,image-button-response,,
1401,4_ramp_yellow,,1,,,,,4,True,Yes,True,,2,,,,,,,0.0-6.0-0.0,,,,Yes,2105,,stimuli/hr_ly_r_first.jpg,,,70255,,prediction_trial,10,image-button-response,,
1401,4_ramp_yellow,,,,,,,4,True,,,,,,,,,,,0.0-6.0-1.0,,,,,,,['stimuli/hr_ly_r.mp4'],,,77841,,video_trial,11,video-button-response,,
1401,4_ramp_yellow,,,,,,,4,,,,,,,,,,,,0.0-6.0-2.0,,,,0,1252,,stimuli/hr_ly_r_last.jpg,,,79134,,feedback_trial,12,image-button-response,,
1401,4_ramp_yellow,,0,,,,,4,False,No,False,,0,,,,,,,0.0-7.0-0.0,,,,Yes,3613,,stimuli/hr_hb_r_first.jpg,,,82788,,prediction_trial,13,image-button-response,,
1401,4_ramp_yellow,,,,,,,4,False,,,,,,,,,,,0.0-7.0-1.0,,,,,,,['stimuli/hr_hb_r.mp4'],,,90391,,video_trial,14,video-button-response,,
1401,4_ramp_yellow,,,,,,,4,,,,,,,,,,,,0.0-7.0-2.0,,,,0,950,,stimuli/hr_hb_r_last.jpg,,,91384,,feedback_trial,15,image-button-response,,
1401,4_ramp_yellow,,0,,,,,4,False,No,False,,1,,,,,,,0.0-8.0-0.0,,,,Yes,1578,,stimuli/lb_hb_r_first.jpg,,,93001,,prediction_trial,16,image-button-response,,
1401,4_ramp_yellow,,,,,,,4,False,,,,,,,,,,,0.0-8.0-1.0,,,,,,,['stimuli/lb_hb_r.mp4'],,,101257,,video_trial,17,video-button-response,,
1401,4_ramp_yellow,,,,,,,4,,,,,,,,,,,,0.0-8.0-2.0,,,,0,922,,stimuli/lb_hb_r_last.jpg,,,102224,,feedback_trial,18,image-button-response,,
1401,4_ramp_yellow,,,,,,,4,,,,,,,,,,,,0.0-9.0,,,,0,6156,," <p> Now we will ask you to make some different predictions.</p> <p>This time, we'll ask you to select one of four images that correctly shows where the block will end up.</p>",,,108382,,surprise_quiz_instructions,19,html-button-response,,
1401,4_ramp_yellow,True,,True,,,"['<br><img src=stimuli/r_b_0.jpg style=width:288px></img', '<br><img src=stimuli/r_b_1.jpg style=width:288px></img', '<br><img src=stimuli/r_b_2.jpg style=width:288px></img', '<br><img src=stimuli/r_b_3.jpg style=width:288px></img']",4,,,,0,,,,,,,,0.0-10.0,,[0],,<br><img src=stimuli/r_b_0.jpg style=width:288px></img,12462,0,,,hr_hb_r,120849,,surprise_quiz,20,survey-multi-choice,,
1401,4_ramp_yellow,False,,True,,,"['<br><img src=stimuli/b_y_0.jpg style=width:288px></img', '<br><img src=stimuli/b_y_1.jpg style=width:288px></img', '<br><img src=stimuli/b_y_2.jpg style=width:288px></img', '<br><img src=stimuli/b_y_3.jpg style=width:288px></img']",4,,,,3,,,,,,,,0.0-11.0,,[0],,<br><img src=stimuli/b_y_2.jpg style=width:288px></img,6908,2,,,lb_ly_r,127760,,surprise_quiz,21,survey-multi-choice,,
1401,4_ramp_yellow,True,,True,,,"['<br><img src=stimuli/r_y_0.jpg style=width:288px></img', '<br><img src=stimuli/r_y_1.jpg style=width:288px></img', '<br><img src=stimuli/r_y_2.jpg style=width:288px></img', '<br><img src=stimuli/r_y_3.jpg style=width:288px></img']",4,,,,2,,,,,,,,0.0-12.0,,[0],,<br><img src=stimuli/r_y_2.jpg style=width:288px></img,4841,2,,,hr_ly_r,132604,,surprise_quiz,22,survey-multi-choice,,
1401,4_ramp_yellow,True,,True,,,"['<br><img src=stimuli/b_b_0.jpg style=width:288px></img', '<br><img src=stimuli/b_b_1.jpg style=width:288px></img', '<br><img src=stimuli/b_b_2.jpg style=width:288px></img', '<br><img src=stimuli/b_b_3.jpg style=width:288px></img']",4,,,,1,,,,,,,,0.0-13.0,,[0],,<br><img src=stimuli/b_b_1.jpg style=width:288px></img,3655,1,,,lb_hb_r,136262,,surprise_quiz,23,survey-multi-choice,,
1401,4_ramp_yellow,,,,,,,4,,,,,,,,,,,,0.0-14.0,,,,0,2173,,"<p>Thank you for participating!</p>You answered 2 out of 4 trials correctly, and will receive a $0.16 bonus.<p>Now you will complete a short survey before finishing the experiment.</p>",,,138438,,,24,html-button-response,,
1401,4_ramp_yellow,,,,29,0.16,,4,,,,,,Non-Hispanic,,,,,Male,0.0-15.0,0.5,,Multiracial,"{'age': '29', 'race': 'Multiracial', 'gender': 'Male', 'feedback': '', 'ethnicity': 'Non-Hispanic', 'other_race': '', 'other_gender': ''}",15910,,,,,154352,,exit_survey,25,survey-html-form,,
1383,4_ramp_yellow,,,,,,,4,,,,,,,[],[],[],,,0.0-0.0,,,,,,,,True,,120,False,,0,preload,,
1383,4_ramp_yellow,,,,,,,4,,,,,,,,,,,,0.0-1.0,,,,,,,,True,,3174,,,1,fullscreen,,
1383,4_ramp_yellow,,,,,,,4,,,,,,,,,,,,0.0-2.0,,,,0,3843,,"<p><b>Consent Form</b></p> <div style=""text-align:left;background-color:lightblue; padding:20px; max-width:900px;""><p><b>Description:</b> Welcome! You are invited to participate in a research study in cognitive psychology. You will be asked to perform various tasks on a computer which may include: looking at images or videos, listening to sounds, reading scenarios, or playing games. You may be asked a number of different questions about making judgments and intepreting people's actions. All information collected will remain confidential. </p> <p> <b>Risks and benefits:</b> Risks involved in this study are the same as those normally associated with using a computer (e.g., mild eye/arm strain). If you have any pre- existing conditions that might make reading and completing a computer-based survey strenuous for you, you should probably elect to not participate in this study. If at any time during the study you feel unable to participate because you are experiencing strain, you may end your participation without penalty. We cannot and do not guarantee or promise that you will receive any benefits from this study. Your decision whether or not to participate in this study will not affect your employment, medical care, and/or grades in school. </p><p><b>Time involvement:</b> Your participation in this experiment will take  5 minutes. </p><p><b> Payment:</b> If recruitment materials indicate payment (e.g., Prolific or other recruitment), you will receive compensation as indicated. </p><p><b>Subject's rights:</b> If you have read this notice and have decided to participate in this project, please understand your participation is voluntary and you have the right to withdraw your consent or discontinue participation at any time without penalty or loss of benefits to which you are otherwise entitled. You have the right to refuse to answer particular questions. Your individual privacy will be maintained in all published and written data resulting from the study. </p><p><b>Contact information:</b> If you have any questions, concerns or complaints about this research study, its procedures, or risks and benefits, you should ask the Protocol Director, (Professor Tobias Gerstenberg, Phone: (650) 725-2431; Email: gerstenberg@stanford.edu). </p><p><b>Independent contact:</b> If you are not satisfied with how this study is being conducted, or if you have any concerns, complaints, or general questions about the research or your rights as a participant, please contact the Stanford Institutional Review Board (IRB) to speak to someone independent of the research team via email at irb2-manager@lists.stanford.edu, or via phone at (650) 723-2480 or toll free at 1-866-680-2906. You can also write to the Stanford IRB, Stanford University, 3000 El Camino Real, Five Palo Alto Square, 4th Floor, Palo Alto, CA 94306. </p><p>You may want to print a copy of this consent form to keep. By clicking the button below, you acknowledge that you have read the above information, that you are 18 years of age, or older and give your consent to participate in our internet-based study and consent for us to analyze the resulting data. </p> </div><p> Do you agree with the terms of the experiment as explained above? </p>",,,7019,,,2,html-button-response,,
1383,4_ramp_yellow,,,,,,,4,,,,,,,,,,,,0.0-3.0-0.0,,,,,23184,,,,,30204,,instructions_pt1,3,instructions,"[{'page_index': 0, 'viewing_time': 2869}, {'page_index': 1, 'viewing_time': 4640}, {'page_index': 2, 'viewing_time': 1701}, {'page_index': 3, 'viewing_time': 1277}, {'page_index': 4, 'viewing_time': 5395}, {'page_index': 5, 'viewing_time': 3526}, {'page_index': 6, 'viewing_time': 2190}, {'page_index': 7, 'viewing_time': 1585}]",
1383,4_ramp_yellow,True,,,,,,4,,0,,,,,,,,,,0.0-3.0-1.0-0.0,,,,0,4165,,"<p> In this experiment, you will receive a bonus payment proportional to _________.</p>",,,34370,,comprehension_quiz,4,html-button-response,,
1383,4_ramp_yellow,True,,,,,,4,,1,,,,,,,,,,0.0-3.0-1.0-1.0,,,,1,2410,,You will be asked to predict whether objects _________.,,,36780,,comprehension_quiz,5,html-button-response,,
1383,4_ramp_yellow,,,,,,,4,,,,,,,,,,,,0.0-4.0,,,,0,884,,The experiment will now begin,,,37666,,,6,html-button-response,,
1383,4_ramp_yellow,,0,,,,,4,False,No,False,,1,,,,,,,0.0-5.0-0.0,,,,Yes,3593,,stimuli/lb_hb_r_first.jpg,,,41275,,prediction_trial,7,image-button-response,,
1383,4_ramp_yellow,,,,,,,4,False,,,,,,,,,,,0.0-5.0-1.0,,,,,,,['stimuli/lb_hb_r.mp4'],,,49395,,video_trial,8,video-button-response,,
1383,4_ramp_yellow,,,,,,,4,,,,,,,,,,,,0.0-5.0-2.0,,,,0,1235,,stimuli/lb_hb_r_last.jpg,,,50646,,feedback_trial,9,image-button-response,,
1383,4_ramp_yellow,,0,,,,,4,False,Yes,True,,3,,,,,,,0.0-6.0-0.0,,,,No,1753,,stimuli/lb_ly_r_first.jpg,,,52415,,prediction_trial,10,image-button-response,,
1383,4_ramp_yellow,,,,,,,4,False,,,,,,,,,,,0.0-6.0-1.0,,,,,,,['stimuli/lb_ly_r.mp4'],,,60752,,video_trial,11,video-button-response,,
1383,4_ramp_yellow,,,,,,,4,,,,,,,,,,,,0.0-6.0-2.0,,,,0,1540,,stimuli/lb_ly_r_last.jpg,,,62311,,feedback_trial,12,image-button-response,,
1383,4_ramp_yellow,,1,,,,,4,True,No,False,,0,,,,,,,0.0-7.0-0.0,,,,No,1633,,stimuli/hr_hb_r_first.jpg,,,63961,,prediction_trial,13,image-button-response,,
1383,4_ramp_yellow,,,,,,,4,True,,,,,,,,,,,0.0-7.0-1.0,,,,,,,['stimuli/hr_hb_r.mp4'],,,71413,,video_trial,14,video-button-response,,
1383,4_ramp_yellow,,,,,,,4,,,,,,,,,,,,0.0-7.0-2.0,,,,0,1333,,stimuli/hr_hb_r_last.jpg,,,72764,,feedback_trial,15,image-button-response,,
1383,4_ramp_yellow,,1,,,,,4,True,Yes,True,,2,,,,,,,0.0-8.0-0.0,,,,Yes,1219,,stimuli/hr_ly_r_first.jpg,,,73999,,prediction_trial,16,image-button-response,,
1383,4_ramp_yellow,,,,,,,4,True,,,,,,,,,,,0.0-8.0-1.0,,,,,,,['stimuli/hr_ly_r.mp4'],,,81418,,video_trial,17,video-button-response,,
1383,4_ramp_yellow,,,,,,,4,,,,,,,,,,,,0.0-8.0-2.0,,,,0,615,,stimuli/hr_ly_r_last.jpg,,,82048,,feedback_trial,18,image-button-response,,
1383,4_ramp_yellow,,,,,,,4,,,,,,,,,,,,0.0-9.0,,,,0,3001,," <p> Now we will ask you to make some different predictions.</p> <p>This time, we'll ask you to select one of four images that correctly shows where the block will end up.</p>",,,85050,,surprise_quiz_instructions,19,html-button-response,,
1383,4_ramp_yellow,True,,True,,,"['<br><img src=stimuli/r_y_0.jpg style=width:277.8px></img', '<br><img src=stimuli/r_y_1.jpg style=width:277.8px></img', '<br><img src=stimuli/r_y_2.jpg style=width:277.8px></img', '<br><img src=stimuli/r_y_3.jpg style=width:277.8px></img']",4,,,,2,,,,,,,,0.0-10.0,,[0],,<br><img src=stimuli/r_y_2.jpg style=width:277.8px></img,5867,2,,,hr_ly_r,90929,,surprise_quiz,20,survey-multi-choice,,
1383,4_ramp_yellow,False,,True,,,"['<br><img src=stimuli/b_y_0.jpg style=width:277.8px></img', '<br><img src=stimuli/b_y_1.jpg style=width:277.8px></img', '<br><img src=stimuli/b_y_2.jpg style=width:277.8px></img', '<br><img src=stimuli/b_y_3.jpg style=width:277.8px></img']",4,,,,3,,,,,,,,0.0-11.0,,[0],,<br><img src=stimuli/b_y_2.jpg style=width:277.8px></img,3508,2,,,lb_ly_r,94446,,surprise_quiz,21,survey-multi-choice,,
1383,4_ramp_yellow,True,,True,,,"['<br><img src=stimuli/b_b_0.jpg style=width:277.8px></img', '<br><img src=stimuli/b_b_1.jpg style=width:277.8px></img', '<br><img src=stimuli/b_b_2.jpg style=width:277.8px></img', '<br><img src=stimuli/b_b_3.jpg style=width:277.8px></img']",4,,,,1,,,,,,,,0.0-12.0,,[0],,<br><img src=stimuli/b_b_1.jpg style=width:277.8px></img,3427,1,,,lb_hb_r,97883,,surprise_quiz,22,survey-multi-choice,,
1383,4_ramp_yellow,False,,True,,,"['<br><img src=stimuli/r_b_0.jpg style=width:277.8px></img', '<br><img src=stimuli/r_b_1.jpg style=width:277.8px></img', '<br><img src=stimuli/r_b_2.jpg style=width:277.8px></img', '<br><img src=stimuli/r_b_3.jpg style=width:277.8px></img']",4,,,,0,,,,,,,,0.0-13.0,,[0],,<br><img src=stimuli/r_b_1.jpg style=width:277.8px></img,11563,1,,,hr_hb_r,109458,,surprise_quiz,23,survey-multi-choice,,
1383,4_ramp_yellow,,,,,,,4,,,,,,,,,,,,0.0-14.0,,,,0,5192,,"<p>Thank you for participating!</p>You answered 2 out of 4 trials correctly, and will receive a $0.16 bonus.<p>Now you will complete a short survey before finishing the experiment.</p>",,,114656,,,24,html-button-response,,
1383,4_ramp_yellow,,,,26,0.16,,4,,,,,,Non-Hispanic,,,,"The color of the ramp was the primary factor in my decision. No further questions, thank you.",Male,0.0-15.0,0.5,,Asian,"{'age': '26', 'race': 'Asian', 'gender': 'Male', 'feedback': 'The color of the ramp was the primary factor in my decision. No further questions, thank you.', 'ethnicity': 'Non-Hispanic', 'other_race': '', 'other_gender': ''}",36270,,,,,150929,,exit_survey,25,survey-html-form,,
1409,4_ramp_yellow,,,,,,,4,,,,,,,[],[],[],,,0.0-0.0,,,,,,,,True,,251,False,,0,preload,,
1409,4_ramp_yellow,,,,,,,4,,,,,,,,,,,,0.0-1.0,,,,,,,,True,,3135,,,1,fullscreen,,
1409,4_ramp_yellow,,,,,,,4,,,,,,,,,,,,0.0-2.0,,,,0,2701,,"<p><b>Consent Form</b></p> <div style=""text-align:left;background-color:lightblue; padding:20px; max-width:900px;""><p><b>Description:</b> Welcome! You are invited to participate in a research study in cognitive psychology. You will be asked to perform various tasks on a computer which may include: looking at images or videos, listening to sounds, reading scenarios, or playing games. You may be asked a number of different questions about making judgments and intepreting people's actions. All information collected will remain confidential. </p> <p> <b>Risks and benefits:</b> Risks involved in this study are the same as those normally associated with using a computer (e.g., mild eye/arm strain). If you have any pre- existing conditions that might make reading and completing a computer-based survey strenuous for you, you should probably elect to not participate in this study. If at any time during the study you feel unable to participate because you are experiencing strain, you may end your participation without penalty. We cannot and do not guarantee or promise that you will receive any benefits from this study. Your decision whether or not to participate in this study will not affect your employment, medical care, and/or grades in school. </p><p><b>Time involvement:</b> Your participation in this experiment will take  5 minutes. </p><p><b> Payment:</b> If recruitment materials indicate payment (e.g., Prolific or other recruitment), you will receive compensation as indicated. </p><p><b>Subject's rights:</b> If you have read this notice and have decided to participate in this project, please understand your participation is voluntary and you have the right to withdraw your consent or discontinue participation at any time without penalty or loss of benefits to which you are otherwise entitled. You have the right to refuse to answer particular questions. Your individual privacy will be maintained in all published and written data resulting from the study. </p><p><b>Contact information:</b> If you have any questions, concerns or complaints about this research study, its procedures, or risks and benefits, you should ask the Protocol Director, (Professor Tobias Gerstenberg, Phone: (650) 725-2431; Email: gerstenberg@stanford.edu). </p><p><b>Independent contact:</b> If you are not satisfied with how this study is being conducted, or if you have any concerns, complaints, or general questions about the research or your rights as a participant, please contact the Stanford Institutional Review Board (IRB) to speak to someone independent of the research team via email at irb2-manager@lists.stanford.edu, or via phone at (650) 723-2480 or toll free at 1-866-680-2906. You can also write to the Stanford IRB, Stanford University, 3000 El Camino Real, Five Palo Alto Square, 4th Floor, Palo Alto, CA 94306. </p><p>You may want to print a copy of this consent form to keep. By clicking the button below, you acknowledge that you have read the above information, that you are 18 years of age, or older and give your consent to participate in our internet-based study and consent for us to analyze the resulting data. </p> </div><p> Do you agree with the terms of the experiment as explained above? </p>",,,5838,,,2,html-button-response,,
1409,4_ramp_yellow,,,,,,,4,,,,,,,,,,,,0.0-3.0-0.0,,,,,30757,,,,,36596,,instructions_pt1,3,instructions,"[{'page_index': 0, 'viewing_time': 3295}, {'page_index': 1, 'viewing_time': 5528}, {'page_index': 2, 'viewing_time': 3599}, {'page_index': 3, 'viewing_time': 2679}, {'page_index': 4, 'viewing_time': 5953}, {'page_index': 5, 'viewing_time': 5038}, {'page_index': 6, 'viewing_time': 2920}, {'page_index': 7, 'viewing_time': 1744}]",
1409,4_ramp_yellow,True,,,,,,4,,0,,,,,,,,,,0.0-3.0-1.0-0.0,,,,0,4761,,"<p> In this experiment, you will receive a bonus payment proportional to _________.</p>",,,41358,,comprehension_quiz,4,html-button-response,,
1409,4_ramp_yellow,True,,,,,,4,,1,,,,,,,,,,0.0-3.0-1.0-1.0,,,,1,2489,,You will be asked to predict whether objects _________.,,,43849,,comprehension_quiz,5,html-button-response,,
1409,4_ramp_yellow,,,,,,,4,,,,,,,,,,,,0.0-4.0,,,,0,985,,The experiment will now begin,,,44835,,,6,html-button-response,,
1409,4_ramp_yellow,,0,,,,,4,False,No,False,,1,,,,,,,0.0-5.0-0.0,,,,Yes,4344,,stimuli/lb_hb_r_first.jpg,,,49197,,prediction_trial,7,image-button-response,,
1409,4_ramp_yellow,,,,,,,4,False,,,,,,,,,,,0.0-5.0-1.0,,,,,,,['stimuli/lb_hb_r.mp4'],,,57290,,video_trial,8,video-button-response,,
1409,4_ramp_yellow,,,,,,,4,,,,,,,,,,,,0.0-5.0-2.0,,,,0,5406,,stimuli/lb_hb_r_last.jpg,,,62703,,feedback_trial,9,image-button-response,,
1409,4_ramp_yellow,,0,,,,,4,False,No,False,,0,,,,,,,0.0-6.0-0.0,,,,Yes,2607,,stimuli/hr_hb_r_first.jpg,,,65312,,prediction_trial,10,image-button-response,,
1409,4_ramp_yellow,,,,,,,4,False,,,,,,,,,,,0.0-6.0-1.0,,,,,,,['stimuli/hr_hb_r.mp4'],,,72728,,video_trial,11,video-button-response,,
1409,4_ramp_yellow,,,,,,,4,,,,,,,,,,,,0.0-6.0-2.0,,,,0,919,,stimuli/hr_hb_r_last.jpg,,,73648,,feedback_trial,12,image-button-response,,
1409,4_ramp_yellow,,1,,,,,4,True,Yes,True,,3,,,,,,,0.0-7.0-0.0,,,,Yes,2711,,stimuli/lb_ly_r_first.jpg,,,76361,,prediction_trial,13,image-button-response,,
1409,4_ramp_yellow,,,,,,,4,True,,,,,,,,,,,0.0-7.0-1.0,,,,,,,['stimuli/lb_ly_r.mp4'],,,84629,,video_trial,14,video-button-response,,
1409,4_ramp_yellow,,,,,,,4,,,,,,,,,,,,0.0-7.0-2.0,,,,0,6596,,stimuli/lb_ly_r_last.jpg,,,91227,,feedback_trial,15,image-button-response,,
1409,4_ramp_yellow,,1,,,,,4,True,Yes,True,,2,,,,,,,0.0-8.0-0.0,,,,Yes,2449,,stimuli/hr_ly_r_first.jpg,,,93678,,prediction_trial,16,image-button-response,,
1409,4_ramp_yellow,,,,,,,4,True,,,,,,,,,,,0.0-8.0-1.0,,,,,,,['stimuli/hr_ly_r.mp4'],,,101046,,video_trial,17,video-button-response,,
1409,4_ramp_yellow,,,,,,,4,,,,,,,,,,,,0.0-8.0-2.0,,,,0,2796,,stimuli/hr_ly_r_last.jpg,,,103844,,feedback_trial,18,image-button-response,,
1409,4_ramp_yellow,,,,,,,4,,,,,,,,,,,,0.0-9.0,,,,0,6816,," <p> Now we will ask you to make some different predictions.</p> <p>This time, we'll ask you to select one of four images that correctly shows where the block will end up.</p>",,,110661,,surprise_quiz_instructions,19,html-button-response,,
1409,4_ramp_yellow,False,,True,,,"['<br><img src=stimuli/b_b_0.jpg style=width:256px></img', '<br><img src=stimuli/b_b_1.jpg style=width:256px></img', '<br><img src=stimuli/b_b_2.jpg style=width:256px></img', '<br><img src=stimuli/b_b_3.jpg style=width:256px></img']",4,,,,1,,,,,,,,0.0-10.0,,[0],,<br><img src=stimuli/b_b_0.jpg style=width:256px></img,15183,0,,,lb_hb_r,125849,,surprise_quiz,20,survey-multi-choice,,
1409,4_ramp_yellow,True,,True,,,"['<br><img src=stimuli/r_y_0.jpg style=width:256px></img', '<br><img src=stimuli/r_y_1.jpg style=width:256px></img', '<br><img src=stimuli/r_y_2.jpg style=width:256px></img', '<br><img src=stimuli/r_y_3.jpg style=width:256px></img']",4,,,,2,,,,,,,,0.0-11.0,,[0],,<br><img src=stimuli/r_y_2.jpg style=width:256px></img,5869,2,,,hr_ly_r,131721,,surprise_quiz,21,survey-multi-choice,,
1409,4_ramp_yellow,True,,True,,,"['<br><img src=stimuli/r_b_0.jpg style=width:256px></img', '<br><img src=stimuli/r_b_1.jpg style=width:256px></img', '<br><img src=stimuli/r_b_2.jpg style=width:256px></img', '<br><img src=stimuli/r_b_3.jpg style=width:256px></img']",4,,,,0,,,,,,,,0.0-12.0,,[0],,<br><img src=stimuli/r_b_0.jpg style=width:256px></img,7107,0,,,hr_hb_r,138832,,surprise_quiz,22,survey-multi-choice,,
1409,4_ramp_yellow,False,,True,,,"['<br><img src=stimuli/b_y_0.jpg style=width:256px></img', '<br><img src=stimuli/b_y_1.jpg style=width:256px></img', '<br><img src=stimuli/b_y_2.jpg style=width:256px></img', '<br><img src=stimuli/b_y_3.jpg style=width:256px></img']",4,,,,3,,,,,,,,0.0-13.0,,[0],,<br><img src=stimuli/b_y_2.jpg style=width:256px></img,8340,2,,,lb_ly_r,147174,,surprise_quiz,23,survey-multi-choice,,
1409,4_ramp_yellow,,,,,,,4,,,,,,,,,,,,0.0-14.0,,,,0,6652,,"<p>Thank you for participating!</p>You answered 2 out of 4 trials correctly, and will receive a $0.16 bonus.<p>Now you will complete a short survey before finishing the experiment.</p>",,,153829,,,24,html-button-response,,
1409,4_ramp_yellow,,,,49,0.16,,4,,,,,,Non-Hispanic,,,,During the original phase I tried to remember the colors that actually went over the lines and then at the second round I choose the positions where I thought the blocks landed the last time.,Male,0.0-15.0,0.5,,White,"{'age': '49', 'race': 'White', 'gender': 'Male', 'feedback': 'During the original phase I tried to remember the colors that actually went over the lines and then at the second round I choose the positions where I thought the blocks landed the last time.', 'ethnicity': 'Non-Hispanic', 'other_race': '', 'other_gender': ''}",100583,,,,,254401,,exit_survey,25,survey-html-form,,
1365,4_ramp_yellow,,,,,,,4,,,,,,,[],[],[],,,0.0-0.0,,,,,,,,True,,923,False,,0,preload,,
1365,4_ramp_yellow,,,,,,,4,,,,,,,,,,,,0.0-1.0,,,,,,,,True,,5064,,,1,fullscreen,,
1365,4_ramp_yellow,,,,,,,4,,,,,,,,,,,,0.0-2.0,,,,0,3167,,"<p><b>Consent Form</b></p> <div style=""text-align:left;background-color:lightblue; padding:20px; max-width:900px;""><p><b>Description:</b> Welcome! You are invited to participate in a research study in cognitive psychology. You will be asked to perform various tasks on a computer which may include: looking at images or videos, listening to sounds, reading scenarios, or playing games. You may be asked a number of different questions about making judgments and intepreting people's actions. All information collected will remain confidential. </p> <p> <b>Risks and benefits:</b> Risks involved in this study are the same as those normally associated with using a computer (e.g., mild eye/arm strain). If you have any pre- existing conditions that might make reading and completing a computer-based survey strenuous for you, you should probably elect to not participate in this study. If at any time during the study you feel unable to participate because you are experiencing strain, you may end your participation without penalty. We cannot and do not guarantee or promise that you will receive any benefits from this study. Your decision whether or not to participate in this study will not affect your employment, medical care, and/or grades in school. </p><p><b>Time involvement:</b> Your participation in this experiment will take  5 minutes. </p><p><b> Payment:</b> If recruitment materials indicate payment (e.g., Prolific or other recruitment), you will receive compensation as indicated. </p><p><b>Subject's rights:</b> If you have read this notice and have decided to participate in this project, please understand your participation is voluntary and you have the right to withdraw your consent or discontinue participation at any time without penalty or loss of benefits to which you are otherwise entitled. You have the right to refuse to answer particular questions. Your individual privacy will be maintained in all published and written data resulting from the study. </p><p><b>Contact information:</b> If you have any questions, concerns or complaints about this research study, its procedures, or risks and benefits, you should ask the Protocol Director, (Professor Tobias Gerstenberg, Phone: (650) 725-2431; Email: gerstenberg@stanford.edu). </p><p><b>Independent contact:</b> If you are not satisfied with how this study is being conducted, or if you have any concerns, complaints, or general questions about the research or your rights as a participant, please contact the Stanford Institutional Review Board (IRB) to speak to someone independent of the research team via email at irb2-manager@lists.stanford.edu, or via phone at (650) 723-2480 or toll free at 1-866-680-2906. You can also write to the Stanford IRB, Stanford University, 3000 El Camino Real, Five Palo Alto Square, 4th Floor, Palo Alto, CA 94306. </p><p>You may want to print a copy of this consent form to keep. By clicking the button below, you acknowledge that you have read the above information, that you are 18 years of age, or older and give your consent to participate in our internet-based study and consent for us to analyze the resulting data. </p> </div><p> Do you agree with the terms of the experiment as explained above? </p>",,,8233,,,2,html-button-response,,
1365,4_ramp_yellow,,,,,,,4,,,,,,,,,,,,0.0-3.0-0.0,,,,,15728,,,,,23961,,instructions_pt1,3,instructions,"[{'page_index': 0, 'viewing_time': 3016}, {'page_index': 1, 'viewing_time': 2100}, {'page_index': 2, 'viewing_time': 1481}, {'page_index': 3, 'viewing_time': 905}, {'page_index': 4, 'viewing_time': 2183}, {'page_index': 5, 'viewing_time': 2259}, {'page_index': 6, 'viewing_time': 2456}, {'page_index': 7, 'viewing_time': 1328}]",
1365,4_ramp_yellow,True,,,,,,4,,0,,,,,,,,,,0.0-3.0-1.0-0.0,,,,0,2936,,"<p> In this experiment, you will receive a bonus payment proportional to _________.</p>",,,26899,,comprehension_quiz,4,html-button-response,,
1365,4_ramp_yellow,True,,,,,,4,,1,,,,,,,,,,0.0-3.0-1.0-1.0,,,,1,1959,,You will be asked to predict whether objects _________.,,,28858,,comprehension_quiz,5,html-button-response,,
1365,4_ramp_yellow,,,,,,,4,,,,,,,,,,,,0.0-4.0,,,,0,731,,The experiment will now begin,,,29591,,,6,html-button-response,,
1365,4_ramp_yellow,,0,,,,,4,False,No,False,,1,,,,,,,0.0-5.0-0.0,,,,Yes,5267,,stimuli/lb_hb_r_first.jpg,,,34865,,prediction_trial,7,image-button-response,,
1365,4_ramp_yellow,,,,,,,4,False,,,,,,,,,,,0.0-5.0-1.0,,,,,,,['stimuli/lb_hb_r.mp4'],,,43055,,video_trial,8,video-button-response,,
1365,4_ramp_yellow,,,,,,,4,,,,,,,,,,,,0.0-5.0-2.0,,,,0,852,,stimuli/lb_hb_r_last.jpg,,,43912,,feedback_trial,9,image-button-response,,
1365,4_ramp_yellow,,0,,,,,4,False,No,False,,0,,,,,,,0.0-6.0-0.0,,,,Yes,1945,,stimuli/hr_hb_r_first.jpg,,,45862,,prediction_trial,10,image-button-response,,
1365,4_ramp_yellow,,,,,,,4,False,,,,,,,,,,,0.0-6.0-1.0,,,,,,,['stimuli/hr_hb_r.mp4'],,,53276,,video_trial,11,video-button-response,,
1365,4_ramp_yellow,,,,,,,4,,,,,,,,,,,,0.0-6.0-2.0,,,,0,529,,stimuli/hr_hb_r_last.jpg,,,53811,,feedback_trial,12,image-button-response,,
1365,4_ramp_yellow,,0,,,,,4,False,Yes,True,,3,,,,,,,0.0-7.0-0.0,,,,No,1884,,stimuli/lb_ly_r_first.jpg,,,55702,,prediction_trial,13,image-button-response,,
1365,4_ramp_yellow,,,,,,,4,False,,,,,,,,,,,0.0-7.0-1.0,,,,,,,['stimuli/lb_ly_r.mp4'],,,63979,,video_trial,14,video-button-response,,
1365,4_ramp_yellow,,,,,,,4,,,,,,,,,,,,0.0-7.0-2.0,,,,0,537,,stimuli/lb_ly_r_last.jpg,,,64523,,feedback_trial,15,image-button-response,,
1365,4_ramp_yellow,,1,,,,,4,True,Yes,True,,2,,,,,,,0.0-8.0-0.0,,,,Yes,2405,,stimuli/hr_ly_r_first.jpg,,,66934,,prediction_trial,16,image-button-response,,
1365,4_ramp_yellow,,,,,,,4,True,,,,,,,,,,,0.0-8.0-1.0,,,,,,,['stimuli/hr_ly_r.mp4'],,,74294,,video_trial,17,video-button-response,,
1365,4_ramp_yellow,,,,,,,4,,,,,,,,,,,,0.0-8.0-2.0,,,,0,467,,stimuli/hr_ly_r_last.jpg,,,74768,,feedback_trial,18,image-button-response,,
1365,4_ramp_yellow,,,,,,,4,,,,,,,,,,,,0.0-9.0,,,,0,2850,," <p> Now we will ask you to make some different predictions.</p> <p>This time, we'll ask you to select one of four images that correctly shows where the block will end up.</p>",,,77619,,surprise_quiz_instructions,19,html-button-response,,
1365,4_ramp_yellow,True,,True,,,"['<br><img src=stimuli/b_b_0.jpg style=width:384px></img', '<br><img src=stimuli/b_b_1.jpg style=width:384px></img', '<br><img src=stimuli/b_b_2.jpg style=width:384px></img', '<br><img src=stimuli/b_b_3.jpg style=width:384px></img']",4,,,,1,,,,,,,,0.0-10.0,,[0],,<br><img src=stimuli/b_b_1.jpg style=width:384px></img,4919,1,,,lb_hb_r,82541,,surprise_quiz,20,survey-multi-choice,,
1365,4_ramp_yellow,False,,False,,,"['<br><img src=stimuli/r_y_0.jpg style=width:384px></img', '<br><img src=stimuli/r_y_1.jpg style=width:384px></img', '<br><img src=stimuli/r_y_2.jpg style=width:384px></img', '<br><img src=stimuli/r_y_3.jpg style=width:384px></img']",4,,,,2,,,,,,,,0.0-11.0,,[0],,<br><img src=stimuli/r_y_0.jpg style=width:384px></img,2208,0,,,hr_ly_r,84751,,surprise_quiz,21,survey-multi-choice,,
1365,4_ramp_yellow,False,,False,,,"['<br><img src=stimuli/r_b_0.jpg style=width:384px></img', '<br><img src=stimuli/r_b_1.jpg style=width:384px></img', '<br><img src=stimuli/r_b_2.jpg style=width:384px></img', '<br><img src=stimuli/r_b_3.jpg style=width:384px></img']",4,,,,0,,,,,,,,0.0-12.0,,[0],,<br><img src=stimuli/r_b_2.jpg style=width:384px></img,2901,2,,,hr_hb_r,87654,,surprise_quiz,22,survey-multi-choice,,
1365,4_ramp_yellow,True,,True,,,"['<br><img src=stimuli/b_y_0.jpg style=width:384px></img', '<br><img src=stimuli/b_y_1.jpg style=width:384px></img', '<br><img src=stimuli/b_y_2.jpg style=width:384px></img', '<br><img src=stimuli/b_y_3.jpg style=width:384px></img']",4,,,,3,,,,,,,,0.0-13.0,,[0],,<br><img src=stimuli/b_y_3.jpg style=width:384px></img,1880,3,,,lb_ly_r,89536,,surprise_quiz,23,survey-multi-choice,,
1365,4_ramp_yellow,,,,,,,4,,,,,,,,,,,,0.0-14.0,,,,0,2087,,"<p>Thank you for participating!</p>You answered 1 out of 4 trials correctly, and will receive a $0.08 bonus.<p>Now you will complete a short survey before finishing the experiment.</p>",,,91625,,,24,html-button-response,,
1365,4_ramp_yellow,,,,28,0.08,,4,,,,,,Non-Hispanic,,,,,Male,0.0-15.0,0.25,,Asian,"{'age': '28', 'race': 'Asian', 'gender': 'Male', 'feedback': '', 'ethnicity': 'Non-Hispanic', 'other_race': '', 'other_gender': ''}",10653,,,,,102282,,exit_survey,25,survey-html-form,,
1393,4_ramp_yellow,,,,,,,4,,,,,,,[],[],[],,,0.0-0.0,,,,,,,,True,,252,False,,0,preload,,
1393,4_ramp_yellow,,,,,,,4,,,,,,,,,,,,0.0-1.0,,,,,,,,True,,4204,,,1,fullscreen,,
1393,4_ramp_yellow,,,,,,,4,,,,,,,,,,,,0.0-2.0,,,,0,15699,,"<p><b>Consent Form</b></p> <div style=""text-align:left;background-color:lightblue; padding:20px; max-width:900px;""><p><b>Description:</b> Welcome! You are invited to participate in a research study in cognitive psychology. You will be asked to perform various tasks on a computer which may include: looking at images or videos, listening to sounds, reading scenarios, or playing games. You may be asked a number of different questions about making judgments and intepreting people's actions. All information collected will remain confidential. </p> <p> <b>Risks and benefits:</b> Risks involved in this study are the same as those normally associated with using a computer (e.g., mild eye/arm strain). If you have any pre- existing conditions that might make reading and completing a computer-based survey strenuous for you, you should probably elect to not participate in this study. If at any time during the study you feel unable to participate because you are experiencing strain, you may end your participation without penalty. We cannot and do not guarantee or promise that you will receive any benefits from this study. Your decision whether or not to participate in this study will not affect your employment, medical care, and/or grades in school. </p><p><b>Time involvement:</b> Your participation in this experiment will take  5 minutes. </p><p><b> Payment:</b> If recruitment materials indicate payment (e.g., Prolific or other recruitment), you will receive compensation as indicated. </p><p><b>Subject's rights:</b> If you have read this notice and have decided to participate in this project, please understand your participation is voluntary and you have the right to withdraw your consent or discontinue participation at any time without penalty or loss of benefits to which you are otherwise entitled. You have the right to refuse to answer particular questions. Your individual privacy will be maintained in all published and written data resulting from the study. </p><p><b>Contact information:</b> If you have any questions, concerns or complaints about this research study, its procedures, or risks and benefits, you should ask the Protocol Director, (Professor Tobias Gerstenberg, Phone: (650) 725-2431; Email: gerstenberg@stanford.edu). </p><p><b>Independent contact:</b> If you are not satisfied with how this study is being conducted, or if you have any concerns, complaints, or general questions about the research or your rights as a participant, please contact the Stanford Institutional Review Board (IRB) to speak to someone independent of the research team via email at irb2-manager@lists.stanford.edu, or via phone at (650) 723-2480 or toll free at 1-866-680-2906. You can also write to the Stanford IRB, Stanford University, 3000 El Camino Real, Five Palo Alto Square, 4th Floor, Palo Alto, CA 94306. </p><p>You may want to print a copy of this consent form to keep. By clicking the button below, you acknowledge that you have read the above information, that you are 18 years of age, or older and give your consent to participate in our internet-based study and consent for us to analyze the resulting data. </p> </div><p> Do you agree with the terms of the experiment as explained above? </p>",,,19905,,,2,html-button-response,,
1393,4_ramp_yellow,,,,,,,4,,,,,,,,,,,,0.0-3.0-0.0,,,,,52730,,,,,72633,,instructions_pt1,3,instructions,"[{'page_index': 0, 'viewing_time': 6157}, {'page_index': 1, 'viewing_time': 11333}, {'page_index': 2, 'viewing_time': 7657}, {'page_index': 3, 'viewing_time': 5418}, {'page_index': 4, 'viewing_time': 6691}, {'page_index': 5, 'viewing_time': 5714}, {'page_index': 6, 'viewing_time': 4473}, {'page_index': 7, 'viewing_time': 5284}]",
1393,4_ramp_yellow,True,,,,,,4,,0,,,,,,,,,,0.0-3.0-1.0-0.0,,,,0,8633,,"<p> In this experiment, you will receive a bonus payment proportional to _________.</p>",,,81269,,comprehension_quiz,4,html-button-response,,
1393,4_ramp_yellow,True,,,,,,4,,1,,,,,,,,,,0.0-3.0-1.0-1.0,,,,1,4045,,You will be asked to predict whether objects _________.,,,85318,,comprehension_quiz,5,html-button-response,,
1393,4_ramp_yellow,,,,,,,4,,,,,,,,,,,,0.0-4.0,,,,0,2404,,The experiment will now begin,,,87724,,,6,html-button-response,,
1393,4_ramp_yellow,,1,,,,,4,True,No,False,,0,,,,,,,0.0-5.0-0.0,,,,No,6123,,stimuli/hr_hb_r_first.jpg,,,93872,,prediction_trial,7,image-button-response,,
1393,4_ramp_yellow,,,,,,,4,True,,,,,,,,,,,0.0-5.0-1.0,,,,,,,['stimuli/hr_hb_r.mp4'],,,101336,,video_trial,8,video-button-response,,
1393,4_ramp_yellow,,,,,,,4,,,,,,,,,,,,0.0-5.0-2.0,,,,0,2041,,stimuli/hr_hb_r_last.jpg,,,103378,,feedback_trial,9,image-button-response,,
1393,4_ramp_yellow,,0,,,,,4,False,No,False,,1,,,,,,,0.0-6.0-0.0,,,,Yes,6250,,stimuli/lb_hb_r_first.jpg,,,109629,,prediction_trial,10,image-button-response,,
1393,4_ramp_yellow,,,,,,,4,False,,,,,,,,,,,0.0-6.0-1.0,,,,,,,['stimuli/lb_hb_r.mp4'],,,117739,,video_trial,11,video-button-response,,
1393,4_ramp_yellow,,,,,,,4,,,,,,,,,,,,0.0-6.0-2.0,,,,0,1858,,stimuli/lb_hb_r_last.jpg,,,119598,,feedback_trial,12,image-button-response,,
1393,4_ramp_yellow,,0,,,,,4,False,Yes,True,,2,,,,,,,0.0-7.0-0.0,,,,No,4389,,stimuli/hr_ly_r_first.jpg,,,123989,,prediction_trial,13,image-button-response,,
1393,4_ramp_yellow,,,,,,,4,False,,,,,,,,,,,0.0-7.0-1.0,,,,,,,['stimuli/hr_ly_r.mp4'],,,131376,,video_trial,14,video-button-response,,
1393,4_ramp_yellow,,,,,,,4,,,,,,,,,,,,0.0-7.0-2.0,,,,0,1719,,stimuli/hr_ly_r_last.jpg,,,133098,,feedback_trial,15,image-button-response,,
1393,4_ramp_yellow,,0,,,,,4,False,Yes,True,,3,,,,,,,0.0-8.0-0.0,,,,No,3607,,stimuli/lb_ly_r_first.jpg,,,136707,,prediction_trial,16,image-button-response,,
1393,4_ramp_yellow,,,,,,,4,False,,,,,,,,,,,0.0-8.0-1.0,,,,,,,['stimuli/lb_ly_r.mp4'],,,145012,,video_trial,17,video-button-response,,
1393,4_ramp_yellow,,,,,,,4,,,,,,,,,,,,0.0-8.0-2.0,,,,0,937,,stimuli/lb_ly_r_last.jpg,,,145951,,feedback_trial,18,image-button-response,,
1393,4_ramp_yellow,,,,,,,4,,,,,,,,,,,,0.0-9.0,,,,0,7540,," <p> Now we will ask you to make some different predictions.</p> <p>This time, we'll ask you to select one of four images that correctly shows where the block will end up.</p>",,,153493,,surprise_quiz_instructions,19,html-button-response,,
1393,4_ramp_yellow,True,,True,,,"['<br><img src=stimuli/r_y_0.jpg style=width:256px></img', '<br><img src=stimuli/r_y_1.jpg style=width:256px></img', '<br><img src=stimuli/r_y_2.jpg style=width:256px></img', '<br><img src=stimuli/r_y_3.jpg style=width:256px></img']",4,,,,2,,,,,,,,0.0-10.0,,[0],,<br><img src=stimuli/r_y_2.jpg style=width:256px></img,14041,2,,,hr_ly_r,167536,,surprise_quiz,20,survey-multi-choice,,
1393,4_ramp_yellow,False,,False,,,"['<br><img src=stimuli/r_b_0.jpg style=width:256px></img', '<br><img src=stimuli/r_b_1.jpg style=width:256px></img', '<br><img src=stimuli/r_b_2.jpg style=width:256px></img', '<br><img src=stimuli/r_b_3.jpg style=width:256px></img']",4,,,,0,,,,,,,,0.0-11.0,,[0],,<br><img src=stimuli/r_b_3.jpg style=width:256px></img,14171,3,,,hr_hb_r,181715,,surprise_quiz,21,survey-multi-choice,,
1393,4_ramp_yellow,False,,True,,,"['<br><img src=stimuli/b_b_0.jpg style=width:256px></img', '<br><img src=stimuli/b_b_1.jpg style=width:256px></img', '<br><img src=stimuli/b_b_2.jpg style=width:256px></img', '<br><img src=stimuli/b_b_3.jpg style=width:256px></img']",4,,,,1,,,,,,,,0.0-12.0,,[0],,<br><img src=stimuli/b_b_0.jpg style=width:256px></img,6523,0,,,lb_hb_r,188241,,surprise_quiz,22,survey-multi-choice,,
1393,4_ramp_yellow,False,,True,,,"['<br><img src=stimuli/b_y_0.jpg style=width:256px></img', '<br><img src=stimuli/b_y_1.jpg style=width:256px></img', '<br><img src=stimuli/b_y_2.jpg style=width:256px></img', '<br><img src=stimuli/b_y_3.jpg style=width:256px></img']",4,,,,3,,,,,,,,0.0-13.0,,[0],,<br><img src=stimuli/b_y_2.jpg style=width:256px></img,5609,2,,,lb_ly_r,193852,,surprise_quiz,23,survey-multi-choice,,
1393,4_ramp_yellow,,,,,,,4,,,,,,,,,,,,0.0-14.0,,,,0,4464,,"<p>Thank you for participating!</p>You answered 1 out of 4 trials correctly, and will receive a $0.08 bonus.<p>Now you will complete a short survey before finishing the experiment.</p>",,,198317,,,24,html-button-response,,
1393,4_ramp_yellow,,,,57,0.08,,4,,,,,,Non-Hispanic,,,,,Female,0.0-15.0,0.25,,White,"{'age': '57', 'race': 'White', 'gender': 'Female', 'feedback': '', 'ethnicity': 'Non-Hispanic', 'other_race': '', 'other_gender': ''}",24945,,,,,223264,,exit_survey,25,survey-html-form,,
1371,4_ramp_yellow,,,,,,,4,,,,,,,[],[],[],,,0.0-0.0,,,,,,,,True,,1174,False,,0,preload,,
1371,4_ramp_yellow,,,,,,,4,,,,,,,,,,,,0.0-1.0,,,,,,,,True,,4870,,,1,fullscreen,,
1371,4_ramp_yellow,,,,,,,4,,,,,,,,,,,,0.0-2.0,,,,0,42200,,"<p><b>Consent Form</b></p> <div style=""text-align:left;background-color:lightblue; padding:20px; max-width:900px;""><p><b>Description:</b> Welcome! You are invited to participate in a research study in cognitive psychology. You will be asked to perform various tasks on a computer which may include: looking at images or videos, listening to sounds, reading scenarios, or playing games. You may be asked a number of different questions about making judgments and intepreting people's actions. All information collected will remain confidential. </p> <p> <b>Risks and benefits:</b> Risks involved in this study are the same as those normally associated with using a computer (e.g., mild eye/arm strain). If you have any pre- existing conditions that might make reading and completing a computer-based survey strenuous for you, you should probably elect to not participate in this study. If at any time during the study you feel unable to participate because you are experiencing strain, you may end your participation without penalty. We cannot and do not guarantee or promise that you will receive any benefits from this study. Your decision whether or not to participate in this study will not affect your employment, medical care, and/or grades in school. </p><p><b>Time involvement:</b> Your participation in this experiment will take  5 minutes. </p><p><b> Payment:</b> If recruitment materials indicate payment (e.g., Prolific or other recruitment), you will receive compensation as indicated. </p><p><b>Subject's rights:</b> If you have read this notice and have decided to participate in this project, please understand your participation is voluntary and you have the right to withdraw your consent or discontinue participation at any time without penalty or loss of benefits to which you are otherwise entitled. You have the right to refuse to answer particular questions. Your individual privacy will be maintained in all published and written data resulting from the study. </p><p><b>Contact information:</b> If you have any questions, concerns or complaints about this research study, its procedures, or risks and benefits, you should ask the Protocol Director, (Professor Tobias Gerstenberg, Phone: (650) 725-2431; Email: gerstenberg@stanford.edu). </p><p><b>Independent contact:</b> If you are not satisfied with how this study is being conducted, or if you have any concerns, complaints, or general questions about the research or your rights as a participant, please contact the Stanford Institutional Review Board (IRB) to speak to someone independent of the research team via email at irb2-manager@lists.stanford.edu, or via phone at (650) 723-2480 or toll free at 1-866-680-2906. You can also write to the Stanford IRB, Stanford University, 3000 El Camino Real, Five Palo Alto Square, 4th Floor, Palo Alto, CA 94306. </p><p>You may want to print a copy of this consent form to keep. By clicking the button below, you acknowledge that you have read the above information, that you are 18 years of age, or older and give your consent to participate in our internet-based study and consent for us to analyze the resulting data. </p> </div><p> Do you agree with the terms of the experiment as explained above? </p>",,,47077,,,2,html-button-response,,
1371,4_ramp_yellow,,,,,,,4,,,,,,,,,,,,0.0-3.0-0.0,,,,,35330,,,,,82410,,instructions_pt1,3,instructions,"[{'page_index': 0, 'viewing_time': 18882}, {'page_index': 1, 'viewing_time': 3589}, {'page_index': 2, 'viewing_time': 1949}, {'page_index': 3, 'viewing_time': 997}, {'page_index': 4, 'viewing_time': 2575}, {'page_index': 5, 'viewing_time': 2353}, {'page_index': 6, 'viewing_time': 3475}, {'page_index': 7, 'viewing_time': 1510}]",
1371,4_ramp_yellow,True,,,,,,4,,0,,,,,,,,,,0.0-3.0-1.0-0.0,,,,0,2970,,"<p> In this experiment, you will receive a bonus payment proportional to _________.</p>",,,85381,,comprehension_quiz,4,html-button-response,,
1371,4_ramp_yellow,True,,,,,,4,,1,,,,,,,,,,0.0-3.0-1.0-1.0,,,,1,2061,,You will be asked to predict whether objects _________.,,,87445,,comprehension_quiz,5,html-button-response,,
1371,4_ramp_yellow,,,,,,,4,,,,,,,,,,,,0.0-4.0,,,,0,1001,,The experiment will now begin,,,88449,,,6,html-button-response,,
1371,4_ramp_yellow,,1,,,,,4,True,No,False,,1,,,,,,,0.0-5.0-0.0,,,,No,4276,,stimuli/lb_hb_r_first.jpg,,,92768,,prediction_trial,7,image-button-response,,
1371,4_ramp_yellow,,,,,,,4,True,,,,,,,,,,,0.0-5.0-1.0,,,,,,,['stimuli/lb_hb_r.mp4'],,,100942,,video_trial,8,video-button-response,,
1371,4_ramp_yellow,,,,,,,4,,,,,,,,,,,,0.0-5.0-2.0,,,,0,3556,,stimuli/lb_hb_r_last.jpg,,,104540,,feedback_trial,9,image-button-response,,
1371,4_ramp_yellow,,1,,,,,4,True,Yes,True,,2,,,,,,,0.0-6.0-0.0,,,,Yes,1217,,stimuli/hr_ly_r_first.jpg,,,105794,,prediction_trial,10,image-button-response,,
1371,4_ramp_yellow,,,,,,,4,True,,,,,,,,,,,0.0-6.0-1.0,,,,,,,['stimuli/hr_ly_r.mp4'],,,113264,,video_trial,11,video-button-response,,
1371,4_ramp_yellow,,,,,,,4,,,,,,,,,,,,0.0-6.0-2.0,,,,0,3659,,stimuli/hr_ly_r_last.jpg,,,116966,,feedback_trial,12,image-button-response,,
1371,4_ramp_yellow,,0,,,,,4,False,No,False,,0,,,,,,,0.0-7.0-0.0,,,,Yes,3035,,stimuli/hr_hb_r_first.jpg,,,120038,,prediction_trial,13,image-button-response,,
1371,4_ramp_yellow,,,,,,,4,False,,,,,,,,,,,0.0-7.0-1.0,,,,,,,['stimuli/hr_hb_r.mp4'],,,127528,,video_trial,14,video-button-response,,
1371,4_ramp_yellow,,,,,,,4,,,,,,,,,,,,0.0-7.0-2.0,,,,0,1099,,stimuli/hr_hb_r_last.jpg,,,128669,,feedback_trial,15,image-button-response,,
1371,4_ramp_yellow,,1,,,,,4,True,Yes,True,,3,,,,,,,0.0-8.0-0.0,,,,Yes,2218,,stimuli/lb_ly_r_first.jpg,,,130922,,prediction_trial,16,image-button-response,,
1371,4_ramp_yellow,,,,,,,4,True,,,,,,,,,,,0.0-8.0-1.0,,,,,,,['stimuli/lb_ly_r.mp4'],,,139304,,video_trial,17,video-button-response,,
1371,4_ramp_yellow,,,,,,,4,,,,,,,,,,,,0.0-8.0-2.0,,,,0,1352,,stimuli/lb_ly_r_last.jpg,,,140697,,feedback_trial,18,image-button-response,,
1371,4_ramp_yellow,,,,,,,4,,,,,,,,,,,,0.0-9.0,,,,0,3482,," <p> Now we will ask you to make some different predictions.</p> <p>This time, we'll ask you to select one of four images that correctly shows where the block will end up.</p>",,,144180,,surprise_quiz_instructions,19,html-button-response,,
1371,4_ramp_yellow,False,,True,,,"['<br><img src=stimuli/b_y_0.jpg style=width:288px></img', '<br><img src=stimuli/b_y_1.jpg style=width:288px></img', '<br><img src=stimuli/b_y_2.jpg style=width:288px></img', '<br><img src=stimuli/b_y_3.jpg style=width:288px></img']",4,,,,3,,,,,,,,0.0-10.0,,[0],,<br><img src=stimuli/b_y_2.jpg style=width:288px></img,5722,2,,,lb_ly_r,149908,,surprise_quiz,20,survey-multi-choice,,
1371,4_ramp_yellow,True,,True,,,"['<br><img src=stimuli/r_y_0.jpg style=width:288px></img', '<br><img src=stimuli/r_y_1.jpg style=width:288px></img', '<br><img src=stimuli/r_y_2.jpg style=width:288px></img', '<br><img src=stimuli/r_y_3.jpg style=width:288px></img']",4,,,,2,,,,,,,,0.0-11.0,,[0],,<br><img src=stimuli/r_y_2.jpg style=width:288px></img,2918,2,,,hr_ly_r,152828,,surprise_quiz,21,survey-multi-choice,,
1371,4_ramp_yellow,False,,True,,,"['<br><img src=stimuli/b_b_0.jpg style=width:288px></img', '<br><img src=stimuli/b_b_1.jpg style=width:288px></img', '<br><img src=stimuli/b_b_2.jpg style=width:288px></img', '<br><img src=stimuli/b_b_3.jpg style=width:288px></img']",4,,,,1,,,,,,,,0.0-12.0,,[0],,<br><img src=stimuli/b_b_0.jpg style=width:288px></img,2680,0,,,lb_hb_r,155510,,surprise_quiz,22,survey-multi-choice,,
1371,4_ramp_yellow,True,,True,,,"['<br><img src=stimuli/r_b_0.jpg style=width:288px></img', '<br><img src=stimuli/r_b_1.jpg style=width:288px></img', '<br><img src=stimuli/r_b_2.jpg style=width:288px></img', '<br><img src=stimuli/r_b_3.jpg style=width:288px></img']",4,,,,0,,,,,,,,0.0-13.0,,[0],,<br><img src=stimuli/r_b_0.jpg style=width:288px></img,3562,0,,,hr_hb_r,159075,,surprise_quiz,23,survey-multi-choice,,
1371,4_ramp_yellow,,,,,,,4,,,,,,,,,,,,0.0-14.0,,,,0,2521,,"<p>Thank you for participating!</p>You answered 3 out of 4 trials correctly, and will receive a $0.24 bonus.<p>Now you will complete a short survey before finishing the experiment.</p>",,,161600,,,24,html-button-response,,
1371,4_ramp_yellow,,,,38,0.24,,4,,,,,,Non-Hispanic,,,,I realized after watching that the blue ramp didn't get the blocks far enough.,Female,0.0-15.0,0.75,,White,"{'age': '38', 'race': 'White', 'gender': 'Female', 'feedback': ""I realized after watching that the blue ramp didn't get the blocks far enough."", 'ethnicity': 'Non-Hispanic', 'other_race': '', 'other_gender': ''}",24011,,,,,185614,,exit_survey,25,survey-html-form,,
1391,4_ramp_yellow,,,,,,,4,,,,,,,[],[],[],,,0.0-0.0,,,,,,,,True,,1076,False,,0,preload,,
1391,4_ramp_yellow,,,,,,,4,,,,,,,,,,,,0.0-1.0,,,,,,,,True,,4497,,,1,fullscreen,,
