workerid,proliferate.condition,age,bonus,condition,ethnicity,feedback,gender,internal_node_id,overall_accuracy,race,response,rt,time_elapsed,trial,trial_index,trial_type,error
1415,4_ramp_yellow,56,0.16,4,Non-Hispanic,"I looked at the size of each block, thinking that bigger blocks were more likely to be slower, and thus not cross the finish line.",Female,0.0-15.0,0.5,White,"{'age': '56', 'race': 'White', 'gender': 'Female', 'feedback': 'I looked at the size of each block, thinking that bigger blocks were more likely to be slower, and thus not cross the finish line.', 'ethnicity': 'Non-Hispanic', 'other_race': '', 'other_gender': ''}",33584,184967,exit_survey,25,survey-html-form,
1243,4_ramp_yellow,23,0.24,4,Non-Hispanic,,Female,0.0-15.0,0.75,White,"{'age': '23', 'race': 'White', 'gender': 'Female', 'feedback': '', 'ethnicity': 'Non-Hispanic', 'other_race': '', 'other_gender': ''}",14037,148101,exit_survey,25,survey-html-form,
1419,4_ramp_yellow,65,0.16,4,Non-Hispanic,I just guessed,Male,0.0-15.0,0.5,White,"{'age': '65', 'race': 'White', 'gender': 'Male', 'feedback': 'I just guessed', 'ethnicity': 'Non-Hispanic', 'other_race': '', 'other_gender': ''}",26313,198300,exit_survey,25,survey-html-form,
1364,4_ramp_yellow,26,0.24,4,Non-Hispanic,The color of the block and ramp in comparison to the previous trial and result.,Female,0.0-15.0,0.75,Asian,"{'age': '26', 'race': 'Asian', 'gender': 'Female', 'feedback': 'The color of the block and ramp in comparison to the previous trial and result.', 'ethnicity': 'Non-Hispanic', 'other_race': '', 'other_gender': ''}",37008,170832,exit_survey,25,survey-html-form,
1372,4_ramp_yellow,52,0.16,4,Non-Hispanic,the previous trial,Female,0.0-15.0,0.5,White,"{'age': '52', 'race': 'White', 'gender': 'Female', 'feedback': 'the previous trial', 'ethnicity': 'Non-Hispanic', 'other_race': '', 'other_gender': ''}",21322,169178,exit_survey,25,survey-html-form,
1401,4_ramp_yellow,29,0.16,4,Non-Hispanic,,Male,0.0-15.0,0.5,Multiracial,"{'age': '29', 'race': 'Multiracial', 'gender': 'Male', 'feedback': '', 'ethnicity': 'Non-Hispanic', 'other_race': '', 'other_gender': ''}",15910,154352,exit_survey,25,survey-html-form,
1383,4_ramp_yellow,26,0.16,4,Non-Hispanic,"The color of the ramp was the primary factor in my decision. No further questions, thank you.",Male,0.0-15.0,0.5,Asian,"{'age': '26', 'race': 'Asian', 'gender': 'Male', 'feedback': 'The color of the ramp was the primary factor in my decision. No further questions, thank you.', 'ethnicity': 'Non-Hispanic', 'other_race': '', 'other_gender': ''}",36270,150929,exit_survey,25,survey-html-form,
1409,4_ramp_yellow,49,0.16,4,Non-Hispanic,During the original phase I tried to remember the colors that actually went over the lines and then at the second round I choose the positions where I thought the blocks landed the last time.,Male,0.0-15.0,0.5,White,"{'age': '49', 'race': 'White', 'gender': 'Male', 'feedback': 'During the original phase I tried to remember the colors that actually went over the lines and then at the second round I choose the positions where I thought the blocks landed the last time.', 'ethnicity': 'Non-Hispanic', 'other_race': '', 'other_gender': ''}",100583,254401,exit_survey,25,survey-html-form,
1365,4_ramp_yellow,28,0.08,4,Non-Hispanic,,Male,0.0-15.0,0.25,Asian,"{'age': '28', 'race': 'Asian', 'gender': 'Male', 'feedback': '', 'ethnicity': 'Non-Hispanic', 'other_race': '', 'other_gender': ''}",10653,102282,exit_survey,25,survey-html-form,
1393,4_ramp_yellow,57,0.08,4,Non-Hispanic,,Female,0.0-15.0,0.25,White,"{'age': '57', 'race': 'White', 'gender': 'Female', 'feedback': '', 'ethnicity': 'Non-Hispanic', 'other_race': '', 'other_gender': ''}",24945,223264,exit_survey,25,survey-html-form,
1371,4_ramp_yellow,38,0.24,4,Non-Hispanic,I realized after watching that the blue ramp didn't get the blocks far enough.,Female,0.0-15.0,0.75,White,"{'age': '38', 'race': 'White', 'gender': 'Female', 'feedback': ""I realized after watching that the blue ramp didn't get the blocks far enough."", 'ethnicity': 'Non-Hispanic', 'other_race': '', 'other_gender': ''}",24011,185614,exit_survey,25,survey-html-form,
1391,4_ramp_yellow,51,0.24,4,Non-Hispanic,,Female,0.0-15.0,0.75,White,"{'age': '51', 'race': 'White', 'gender': 'Female', 'feedback': '', 'ethnicity': 'Non-Hispanic', 'other_race': '', 'other_gender': ''}",7953,126653,exit_survey,25,survey-html-form,
1375,4_ramp_yellow,40,0.24,4,Non-Hispanic,Seeing what color the items were and how they performed ,Male,0.0-15.0,0.75,White,"{'age': '40', 'race': 'White', 'gender': 'Male', 'feedback': 'Seeing what color the items were and how they performed ', 'ethnicity': 'Non-Hispanic', 'other_race': '', 'other_gender': ''}",19928,134786,exit_survey,25,survey-html-form,
1397,4_ramp_yellow,31,0.24,4,Hispanic,I noticed a pattern in speed performance according to ramp/cube colors. Very unique and interesting survey game!,Female,0.0-15.0,0.75,White,"{'age': '31', 'race': 'White', 'gender': 'Female', 'feedback': 'I noticed a pattern in speed performance according to ramp/cube colors. Very unique and interesting survey game!', 'ethnicity': 'Hispanic', 'other_race': '', 'other_gender': ''}",39676,164571,exit_survey,25,survey-html-form,
1405,4_ramp_yellow,22,0.24,4,Non-Hispanic,The color of the ramp influenced my responses because they had different steepness ,Female,0.0-15.0,0.75,White,"{'age': '22', 'race': 'White', 'gender': 'Female', 'feedback': 'The color of the ramp influenced my responses because they had different steepness ', 'ethnicity': 'Non-Hispanic', 'other_race': '', 'other_gender': ''}",30563,143543,exit_survey,25,survey-html-form,
1381,4_ramp_yellow,66,0.16,4,Non-Hispanic,I didn't think any blocks would cross.  When one did I figured the next one would too.,Male,0.0-15.0,0.5,White,"{'age': '66', 'race': 'White', 'gender': 'Male', 'feedback': ""I didn't think any blocks would cross.  When one did I figured the next one would too."", 'ethnicity': 'Non-Hispanic', 'other_race': '', 'other_gender': ''}",65385,299438,exit_survey,25,survey-html-form,
1385,4_ramp_yellow,32,0.08,4,Non-Hispanic,the previous answer influenced my answer,Female,0.0-15.0,0.25,Asian,"{'age': '32', 'race': 'Asian', 'gender': 'Female', 'feedback': 'the previous answer influenced my answer', 'ethnicity': 'Non-Hispanic', 'other_race': '', 'other_gender': ''}",24653,153527,exit_survey,29,survey-html-form,
1420,4_ramp_yellow,39,0.08,4,Non-Hispanic,I responded based on previous trials in the experiment and how the block slid. ,Male,0.0-15.0,0.25,White,"{'age': '39', 'race': 'White', 'gender': 'Male', 'feedback': 'I responded based on previous trials in the experiment and how the block slid. ', 'ethnicity': 'Non-Hispanic', 'other_race': '', 'other_gender': ''}",36637,531367,exit_survey,25,survey-html-form,
1379,4_ramp_yellow,32,0.24,4,Non-Hispanic,,Female,0.0-15.0,0.75,romanian,"{'age': '32', 'race': 'other_race', 'gender': 'Female', 'feedback': '', 'ethnicity': 'Non-Hispanic', 'other_race': 'romanian', 'other_gender': ''}",18416,135352,exit_survey,25,survey-html-form,
1412,4_ramp_yellow,26,0.24,4,Non-Hispanic,,Female,0.0-15.0,0.75,Asian,"{'age': '26', 'race': 'Asian', 'gender': 'Female', 'feedback': '', 'ethnicity': 'Non-Hispanic', 'other_race': '', 'other_gender': ''}",9314,103716,exit_survey,25,survey-html-form,
1387,4_ramp_yellow,28,0.24,4,Non-Hispanic,The color of the block and ramp.,Female,0.0-15.0,0.75,White,"{'age': '28', 'race': 'White', 'gender': 'Female', 'feedback': 'The color of the block and ramp.', 'ethnicity': 'Non-Hispanic', 'other_race': '', 'other_gender': ''}",15217,95299,exit_survey,25,survey-html-form,
1369,4_ramp_yellow,19,0.24,4,Non-Hispanic,"I guessed in the first trial, and deduced in the subsequent trials, that the yellow ramp would be slicker (less friction) than the blue one, and that the gray cube would be less slick than the red one.",Male,0.0-15.0,0.75,Asian,"{'age': '19', 'race': 'Asian', 'gender': 'Male', 'feedback': 'I guessed in the first trial, and deduced in the subsequent trials, that the yellow ramp would be slicker (less friction) than the blue one, and that the gray cube would be less slick than the red one.', 'ethnicity': 'Non-Hispanic', 'other_race': '', 'other_gender': ''}",91255,284630,exit_survey,25,survey-html-form,
1399,4_ramp_yellow,75,0.08,4,Non-Hispanic,what I had seen in the examples,Female,0.0-15.0,0.25,White,"{'age': '75', 'race': 'White', 'gender': 'Female', 'feedback': 'what I had seen in the examples', 'ethnicity': 'Non-Hispanic', 'other_race': '', 'other_gender': ''}",28628,243823,exit_survey,25,survey-html-form,
1389,4_ramp_yellow,49,0.16,4,Non-Hispanic,There was indication that the cubes could slide down. why would one cube life further than the other? does weight come into play?,Male,0.0-15.0,0.5,White,"{'age': '49', 'race': 'White', 'gender': 'Male', 'feedback': 'There was indication that the cubes could slide down. why would one cube life further than the other? does weight come into play?', 'ethnicity': 'Non-Hispanic', 'other_race': '', 'other_gender': ''}",469065,804079,exit_survey,25,survey-html-form,
1413,4_ramp_yellow,23,0.32,4,Hispanic,i guessed based on the colors and by the way i had to turn off my adblock and stuff because the survey did not submit the first time just a very large html code list of some kind but just wnated to mention that the survey was just fine and i guessed by color,Male,0.0-15.0,1,hispanic/latino,"{'age': '23', 'race': 'other_race', 'gender': 'Male', 'feedback': 'i guessed based on the colors and by the way i had to turn off my adblock and stuff because the survey did not submit the first time just a very large html code list of some kind but just wnated to mention that the survey was just fine and i guessed by color', 'ethnicity': 'Hispanic', 'other_race': 'hispanic/latino', 'other_gender': ''}",36411,104935,exit_survey,25,survey-html-form,
1395,4_ramp_yellow,29,0.24,4,Non-Hispanic,N/A,Female,0.0-15.0,0.75,White,"{'age': '29', 'race': 'White', 'gender': 'Female', 'feedback': 'N/A', 'ethnicity': 'Non-Hispanic', 'other_race': '', 'other_gender': ''}",17018,221634,exit_survey,25,survey-html-form,
1367,4_ramp_yellow,30,0.16,4,Non-Hispanic,Making an educated guess,Female,0.0-15.0,0.5,Black/African American,"{'age': '30', 'race': 'Black/African American', 'gender': 'Female', 'feedback': 'Making an educated guess', 'ethnicity': 'Non-Hispanic', 'other_race': '', 'other_gender': ''}",31170,170677,exit_survey,25,survey-html-form,
1407,4_ramp_yellow,46,0.08,4,Non-Hispanic,none,Male,0.0-15.0,0.25,American Indian/Alaska Native,"{'age': '46', 'race': 'American Indian/Alaska Native', 'gender': 'Male', 'feedback': 'none', 'ethnicity': 'Non-Hispanic', 'other_race': '', 'other_gender': ''}",27392,264415,exit_survey,25,survey-html-form,
1403,4_ramp_yellow,29,0.16,4,Non-Hispanic,I didn't have any frame of reference so I randomly guess.,Male,0.0-15.0,0.5,White,"{'age': '29', 'race': 'White', 'gender': 'Male', 'feedback': ""I didn't have any frame of reference so I randomly guess."", 'ethnicity': 'Non-Hispanic', 'other_race': '', 'other_gender': ''}",25396,176079,exit_survey,25,survey-html-form,
1417,4_ramp_yellow,26,0.16,4,Non-Hispanic,,Female,0.0-15.0,0.5,White,"{'age': '26', 'race': 'White', 'gender': 'Female', 'feedback': '', 'ethnicity': 'Non-Hispanic', 'other_race': '', 'other_gender': ''}",12175,141804,exit_survey,25,survey-html-form,
1377,4_ramp_yellow,28,0.08,4,Non-Hispanic,,Male,0.0-15.0,0.25,White,"{'age': '28', 'race': 'White', 'gender': 'Male', 'feedback': '', 'ethnicity': 'Non-Hispanic', 'other_race': '', 'other_gender': ''}",14465,135667,exit_survey,25,survey-html-form,
1352,1_cube_black,62,0.16,1,Non-Hispanic,color of the blocks and ramps,Female,0.0-15.0,0.5,White,"{'age': '62', 'race': 'White', 'gender': 'Female', 'feedback': 'color of the blocks and ramps', 'ethnicity': 'Non-Hispanic', 'other_race': '', 'other_gender': ''}",25212,160324,exit_survey,25,survey-html-form,
1242,1_cube_black,23,0.08,1,Non-Hispanic,,Male,0.0-15.0,0.25,White,"{'age': '23', 'race': 'White', 'gender': 'Male', 'feedback': '', 'ethnicity': 'Non-Hispanic', 'other_race': '', 'other_gender': ''}",13721,160770,exit_survey,25,survey-html-form,
1313,1_cube_black,33,0.08,1,Non-Hispanic,,Male,0.0-15.0,0.25,Asian,"{'age': '33', 'race': 'Asian', 'gender': 'Male', 'feedback': '', 'ethnicity': 'Non-Hispanic', 'other_race': '', 'other_gender': ''}",10822,199643,exit_survey,25,survey-html-form,
1295,1_cube_black,34,0.16,1,Non-Hispanic,Trying to remember which block and ramp combination landed where.,Female,0.0-15.0,0.5,White,"{'age': '34', 'race': 'White', 'gender': 'Female', 'feedback': 'Trying to remember which block and ramp combination landed where.', 'ethnicity': 'Non-Hispanic', 'other_race': '', 'other_gender': ''}",38902,202902,exit_survey,25,survey-html-form,
1343,1_cube_black,22,0.16,1,Hispanic,,Male,0.0-15.0,0.5,White,"{'age': '22', 'race': 'White', 'gender': 'Male', 'feedback': '', 'ethnicity': 'Hispanic', 'other_race': '', 'other_gender': ''}",8645,84453,exit_survey,25,survey-html-form,
1333,1_cube_black,19,0.24,1,Non-Hispanic,No questions or comments. I'm not sure what influenced me how to respond. ,Female,0.0-15.0,0.75,White,"{'age': '19', 'race': 'White', 'gender': 'Female', 'feedback': ""No questions or comments. I'm not sure what influenced me how to respond. "", 'ethnicity': 'Non-Hispanic', 'other_race': '', 'other_gender': ''}",58547,234322,exit_survey,25,survey-html-form,
1312,1_cube_black,21,0.16,1,Non-Hispanic,Just what happened in the experiments influenced the image part of the study. ,Male,0.0-15.0,0.5,White,"{'age': '21', 'race': 'White', 'gender': 'Male', 'feedback': 'Just what happened in the experiments influenced the image part of the study. ', 'ethnicity': 'Non-Hispanic', 'other_race': '', 'other_gender': ''}",50283,142624,exit_survey,25,survey-html-form,
1340,1_cube_black,23,0.08,1,Non-Hispanic,I should note that I do have autism with particular difficulty with spatial reasoning so it was very hard for me to mentally guess what these would do until I figured out the pattern (albeit a bit late),Non-binary,0.0-15.0,0.25,Middle Eastern,"{'age': '23', 'race': 'other_race', 'gender': 'Non-binary', 'feedback': 'I should note that I do have autism with particular difficulty with spatial reasoning so it was very hard for me to mentally guess what these would do until I figured out the pattern (albeit a bit late)', 'ethnicity': 'Non-Hispanic', 'other_race': 'Middle Eastern', 'other_gender': ''}",50228,186918,exit_survey,25,survey-html-form,
1336,1_cube_black,52,0.16,1,Non-Hispanic,No comments.,Female,0.0-15.0,0.5,White,"{'age': '52', 'race': 'White', 'gender': 'Female', 'feedback': 'No comments.', 'ethnicity': 'Non-Hispanic', 'other_race': '', 'other_gender': ''}",30124,149225,exit_survey,25,survey-html-form,
1347,1_cube_black,48,0.16,1,Non-Hispanic,"after the first turn red, black box i used the results from that trial ",Male,0.0-15.0,0.5,White,"{'age': '48', 'race': 'White', 'gender': 'Male', 'feedback': 'after the first turn red, black box i used the results from that trial ', 'ethnicity': 'Non-Hispanic', 'other_race': '', 'other_gender': ''}",41551,179891,exit_survey,25,survey-html-form,
1320,1_cube_black,53,0.16,1,Non-Hispanic,size of blocks,Female,0.0-15.0,0.5,White,"{'age': '53', 'race': 'White', 'gender': 'Female', 'feedback': 'size of blocks', 'ethnicity': 'Non-Hispanic', 'other_race': '', 'other_gender': ''}",21900,219830,exit_survey,25,survey-html-form,
1342,1_cube_black,29,0.24,1,Non-Hispanic,I guessed completely,Female,0.0-15.0,0.75,White,"{'age': '29', 'race': 'White', 'gender': 'Female', 'feedback': 'I guessed completely', 'ethnicity': 'Non-Hispanic', 'other_race': '', 'other_gender': ''}",18398,183597,exit_survey,25,survey-html-form,
1294,1_cube_black,27,0.24,1,Non-Hispanic,just seen which went furthest and what color ramp,Male,0.0-15.0,0.75,White,"{'age': '27', 'race': 'White', 'gender': 'Male', 'feedback': 'just seen which went furthest and what color ramp', 'ethnicity': 'Non-Hispanic', 'other_race': '', 'other_gender': ''}",21486,119868,exit_survey,25,survey-html-form,
1349,1_cube_black,20,0.08,1,Non-Hispanic,"pattern of crossing/not crossing, color of block",Female,0.0-15.0,0.25,Asian,"{'age': '20', 'race': 'Asian', 'gender': 'Female', 'feedback': 'pattern of crossing/not crossing, color of block', 'ethnicity': 'Non-Hispanic', 'other_race': '', 'other_gender': ''}",23867,728537,exit_survey,25,survey-html-form,
1314,1_cube_black,39,0.24,1,Hispanic,,Male,0.0-15.0,0.75,White,"{'age': '39', 'race': 'White', 'gender': 'Male', 'feedback': '', 'ethnicity': 'Hispanic', 'other_race': '', 'other_gender': ''}",13381,182169,exit_survey,25,survey-html-form,
1325,1_cube_black,26,0.08,1,Non-Hispanic,I tried to look at the angle of the ramps to determine if it was steep enough for the block to gain enough momentum to cross the finish line.,Female,0.0-15.0,0.25,White,"{'age': '26', 'race': 'White', 'gender': 'Female', 'feedback': 'I tried to look at the angle of the ramps to determine if it was steep enough for the block to gain enough momentum to cross the finish line.', 'ethnicity': 'Non-Hispanic', 'other_race': '', 'other_gender': ''}",61562,178115,exit_survey,25,survey-html-form,
1315,1_cube_black,25,0.24,1,Non-Hispanic,,agender,0.0-15.0,0.75,White,"{'age': '25', 'race': 'White', 'feedback': '', 'ethnicity': 'Non-Hispanic', 'other_race': '', 'other_gender': 'agender'}",13056,157371,exit_survey,25,survey-html-form,
1311,1_cube_black,63,0.32,1,Non-Hispanic,how far the block went previously,Male,0.0-15.0,1,White,"{'age': '63', 'race': 'White', 'gender': 'Male', 'feedback': 'how far the block went previously', 'ethnicity': 'Non-Hispanic', 'other_race': '', 'other_gender': ''}",68183,319814,exit_survey,25,survey-html-form,
1339,1_cube_black,64,0,1,Non-Hispanic,"I BASED MY GUESS ON THE PREVIOUS CUBE AND RAMP, BUT APPARENTLY THAT DIDN'T WORK",Female,0.0-15.0,0,White,"{'age': '64', 'race': 'White', 'gender': 'Female', 'feedback': ""I BASED MY GUESS ON THE PREVIOUS CUBE AND RAMP, BUT APPARENTLY THAT DIDN'T WORK"", 'ethnicity': 'Non-Hispanic', 'other_race': '', 'other_gender': ''}",54368,305651,exit_survey,25,survey-html-form,
1332,1_cube_black,26,0.16,1,Non-Hispanic,My perceived height of the ramps primarily determined how I chose to respond. ,Non-binary,0.0-15.0,0.5,White,"{'age': '26', 'race': 'White', 'gender': 'Non-binary', 'feedback': 'My perceived height of the ramps primarily determined how I chose to respond. ', 'ethnicity': 'Non-Hispanic', 'other_race': '', 'other_gender': ''}",58653,172458,exit_survey,25,survey-html-form,
1356,1_cube_black,64,0.16,1,Non-Hispanic,The ramp color and how high the block was on the ramp. Though I think the blocks were about the same height before sliding. I also looked for how steep the ramps were. I really did not see any difference. That was really the best I could do given the few sessions involved. ,Male,0.0-15.0,0.5,White,"{'age': '64', 'race': 'White', 'gender': 'Male', 'feedback': 'The ramp color and how high the block was on the ramp. Though I think the blocks were about the same height before sliding. I also looked for how steep the ramps were. I really did not see any difference. That was really the best I could do given the few sessions involved. ', 'ethnicity': 'Non-Hispanic', 'other_race': '', 'other_gender': ''}",159751,352170,exit_survey,25,survey-html-form,
1296,1_cube_black,70,0.08,1,Non-Hispanic,"After a bit, the color.",Male,0.0-15.0,0.25,White,"{'age': '70', 'race': 'White', 'gender': 'Male', 'feedback': 'After a bit, the color.', 'ethnicity': 'Non-Hispanic', 'other_race': '', 'other_gender': ''}",30482,163977,exit_survey,25,survey-html-form,
1291,1_cube_black,45,0.24,1,Non-Hispanic,"I looked at where the cube was at the top of the ramp, but this probably didn't help.",Female,0.0-15.0,0.75,Black/African American,"{'age': '45', 'race': 'Black/African American', 'gender': 'Female', 'feedback': ""I looked at where the cube was at the top of the ramp, but this probably didn't help."", 'ethnicity': 'Non-Hispanic', 'other_race': '', 'other_gender': ''}",46403,334599,exit_survey,25,survey-html-form,
1308,1_cube_black,66,0.24,1,Non-Hispanic,"I did not expect the first block to cross the finish line, but after seeing how far the cube went on the first run, I suspected at least two blocks would cross the finish line.",Male,0.0-15.0,0.75,White,"{'age': '66', 'race': 'White', 'gender': 'Male', 'feedback': 'I did not expect the first block to cross the finish line, but after seeing how far the cube went on the first run, I suspected at least two blocks would cross the finish line.', 'ethnicity': 'Non-Hispanic', 'other_race': '', 'other_gender': ''}",121607,299225,exit_survey,25,survey-html-form,
1307,1_cube_black,40,0.24,1,Non-Hispanic,,Male,0.0-15.0,0.75,Black/African American,"{'age': '40', 'race': 'Black/African American', 'gender': 'Male', 'feedback': '', 'ethnicity': 'Non-Hispanic', 'other_race': '', 'other_gender': ''}",11111,127188,exit_survey,25,survey-html-form,
1293,1_cube_black,65,0.16,1,Non-Hispanic,I was trying to figure out a pattern,Male,0.0-15.0,0.5,White,"{'age': '65', 'race': 'White', 'gender': 'Male', 'feedback': 'I was trying to figure out a pattern', 'ethnicity': 'Non-Hispanic', 'other_race': '', 'other_gender': ''}",35862,159000,exit_survey,25,survey-html-form,
1355,1_cube_black,53,0.16,1,Non-Hispanic,"To see if there was an angle to each ramp.
Then make a conclusion.",Male,0.0-15.0,0.5,White,"{'age': '53', 'race': 'White', 'gender': 'Male', 'feedback': 'To see if there was an angle to each ramp.\nThen make a conclusion.', 'ethnicity': 'Non-Hispanic', 'other_race': '', 'other_gender': ''}",44456,189805,exit_survey,25,survey-html-form,
1354,1_cube_black,37,0.32,1,Non-Hispanic,,Female,0.0-15.0,1,White,"{'age': '37', 'race': 'White', 'gender': 'Female', 'feedback': '', 'ethnicity': 'Non-Hispanic', 'other_race': '', 'other_gender': ''}",7847,107874,exit_survey,25,survey-html-form,
1317,1_cube_black,31,0.24,1,Non-Hispanic,The angle and size of the block,Female,0.0-15.0,0.75,Asian,"{'age': '31', 'race': 'Asian', 'gender': 'Female', 'feedback': 'The angle and size of the block', 'ethnicity': 'Non-Hispanic', 'other_race': '', 'other_gender': ''}",19102,141561,exit_survey,25,survey-html-form,
1285,1_cube_black,66,0.16,1,Non-Hispanic,,Female,0.0-15.0,0.5,White,"{'age': '66', 'race': 'White', 'gender': 'Female', 'feedback': '', 'ethnicity': 'Non-Hispanic', 'other_race': '', 'other_gender': ''}",28735,241327,exit_survey,25,survey-html-form,
1334,1_cube_black,69,0.24,1,Non-Hispanic,,Male,0.0-15.0,0.75,White,"{'age': '69', 'race': 'White', 'gender': 'Male', 'feedback': '', 'ethnicity': 'Non-Hispanic', 'other_race': '', 'other_gender': ''}",21184,230861,exit_survey,25,survey-html-form,
1324,1_cube_black,46,0.16,1,Non-Hispanic,direction of the block and calculating the fall from the angle from which it is falling,Male,0.0-15.0,0.5,White,"{'age': '46', 'race': 'White', 'gender': 'Male', 'feedback': 'direction of the block and calculating the fall from the angle from which it is falling', 'ethnicity': 'Non-Hispanic', 'other_race': '', 'other_gender': ''}",368198,914202,exit_survey,25,survey-html-form,
1353,1_cube_black,46,0.16,1,Non-Hispanic,the color of the cube,Male,0.0-15.0,0.5,Asian,"{'age': '46', 'race': 'Asian', 'gender': 'Male', 'feedback': 'the color of the cube', 'ethnicity': 'Non-Hispanic', 'other_race': '', 'other_gender': ''}",34257,258844,exit_survey,25,survey-html-form,
1304,1_cube_black,33,0.24,1,Non-Hispanic,I thought maybe the wedge was higher based on the color but I think that is wrong.,Female,0.0-15.0,0.75,White,"{'age': '33', 'race': 'White', 'gender': 'Female', 'feedback': 'I thought maybe the wedge was higher based on the color but I think that is wrong.', 'ethnicity': 'Non-Hispanic', 'other_race': '', 'other_gender': ''}",24559,142244,exit_survey,25,survey-html-form,
1348,1_cube_black,21,0.24,1,Hispanic,I justed estimated on the size of the block and height of the ramp,Male,0.0-15.0,0.75,White,"{'age': '21', 'race': 'White', 'gender': 'Male', 'feedback': 'I justed estimated on the size of the block and height of the ramp', 'ethnicity': 'Hispanic', 'other_race': '', 'other_gender': ''}",20318,104299,exit_survey,25,survey-html-form,
1290,1_cube_black,34,0.16,1,Non-Hispanic,I paid attention to the color of the blocks and ramp and see how each performed in the first round. ,Female,0.0-15.0,0.5,Multiracial,"{'age': '34', 'race': 'Multiracial', 'gender': 'Female', 'feedback': 'I paid attention to the color of the blocks and ramp and see how each performed in the first round. ', 'ethnicity': 'Non-Hispanic', 'other_race': '', 'other_gender': ''}",28455,166152,exit_survey,25,survey-html-form,
1289,1_cube_black,33,0.16,1,,"I guessed on the first and depending on the result, I adjusted my answer for the next block.",Male,0.0-15.0,0.5,White,"{'age': '33', 'race': 'White', 'gender': 'Male', 'feedback': 'I guessed on the first and depending on the result, I adjusted my answer for the next block.', 'other_race': '', 'other_gender': ''}",43648,179493,exit_survey,25,survey-html-form,
1329,1_cube_black,41,0.08,1,Non-Hispanic,,Male,0.0-15.0,0.25,White,"{'age': '41', 'race': 'White', 'gender': 'Male', 'feedback': '', 'ethnicity': 'Non-Hispanic', 'other_race': '', 'other_gender': ''}",44508,143195,exit_survey,25,survey-html-form,
1362,1_cube_black,50,0.08,1,Non-Hispanic,,Female,0.0-15.0,0.25,Black/African American,"{'age': '50', 'race': 'Black/African American', 'gender': 'Female', 'feedback': '', 'ethnicity': 'Non-Hispanic', 'other_race': '', 'other_gender': ''}",9904,219873,exit_survey,25,survey-html-form,
1301,1_cube_black,25,0.24,1,Non-Hispanic,I started guessing then used the previous trials to guess,Female,0.0-15.0,0.75,White,"{'age': '25', 'race': 'White', 'gender': 'Female', 'feedback': 'I started guessing then used the previous trials to guess', 'ethnicity': 'Non-Hispanic', 'other_race': '', 'other_gender': ''}",20706,117855,exit_survey,25,survey-html-form,
1305,1_cube_black,34,0.24,1,Hispanic,I just made a prediction.,Female,0.0-15.0,0.75,White,"{'age': '34', 'race': 'White', 'gender': 'Female', 'feedback': 'I just made a prediction.', 'ethnicity': 'Hispanic', 'other_race': '', 'other_gender': ''}",21435,377417,exit_survey,29,survey-html-form,
1286,1_cube_black,64,0.24,1,,colors,Male,0.0-15.0,0.75,White,"{'age': '64', 'race': 'White', 'gender': 'Male', 'feedback': 'colors', 'other_race': '', 'other_gender': ''}",26396,180040,exit_survey,25,survey-html-form,
1309,1_cube_black,31,0.32,1,Non-Hispanic,,Female,0.0-15.0,1,White,"{'age': '31', 'race': 'White', 'gender': 'Female', 'feedback': '', 'ethnicity': 'Non-Hispanic', 'other_race': '', 'other_gender': ''}",8066,99617,exit_survey,25,survey-html-form,
1310,1_cube_black,44,0.16,1,Non-Hispanic,After observing them it helped me decide how I would answer.,Male,0.0-15.0,0.5,Black/African American,"{'age': '44', 'race': 'Black/African American', 'gender': 'Male', 'feedback': 'After observing them it helped me decide how I would answer.', 'ethnicity': 'Non-Hispanic', 'other_race': '', 'other_gender': ''}",47726,193205,exit_survey,25,survey-html-form,
1306,1_cube_black,26,0.16,1,Non-Hispanic,,Male,0.0-15.0,0.5,White,"{'age': '26', 'race': 'White', 'gender': 'Male', 'feedback': '', 'ethnicity': 'Non-Hispanic', 'other_race': '', 'other_gender': ''}",9427,109054,exit_survey,25,survey-html-form,
1303,1_cube_black,33,0.16,1,Non-Hispanic,Red will be below the line and Black will pass through it.,Male,0.0-15.0,0.5,Black/African American,"{'age': '33', 'race': 'Black/African American', 'gender': 'Male', 'feedback': 'Red will be below the line and Black will pass through it.', 'ethnicity': 'Non-Hispanic', 'other_race': '', 'other_gender': ''}",31970,142930,exit_survey,25,survey-html-form,
1335,1_cube_black,46,0.16,1,Non-Hispanic,Guessed.  Seems the black squares usually crossed the finish. ,Male,0.0-15.0,0.5,Black/African American,"{'age': '46', 'race': 'Black/African American', 'gender': 'Male', 'feedback': 'Guessed.  Seems the black squares usually crossed the finish. ', 'ethnicity': 'Non-Hispanic', 'other_race': '', 'other_gender': ''}",37462,176592,exit_survey,25,survey-html-form,
1299,1_cube_black,26,0.16,1,Non-Hispanic,Size and guessing ,Male,0.0-15.0,0.5,White,"{'age': '26', 'race': 'White', 'gender': 'Male', 'feedback': 'Size and guessing ', 'ethnicity': 'Non-Hispanic', 'other_race': '', 'other_gender': ''}",18026,323309,exit_survey,25,survey-html-form,
1322,1_cube_black,30,0.08,1,Non-Hispanic,I was guessing while trying to find patterns,Female,0.0-15.0,0.25,White,"{'age': '30', 'race': 'White', 'gender': 'Female', 'feedback': 'I was guessing while trying to find patterns', 'ethnicity': 'Non-Hispanic', 'other_race': '', 'other_gender': ''}",29700,165534,exit_survey,25,survey-html-form,
1319,1_cube_black,39,0.16,1,Non-Hispanic,the block; it seems that the black block traveled further,Male,0.0-15.0,0.5,Multiracial,"{'age': '39', 'race': 'Multiracial', 'gender': 'Male', 'feedback': 'the block; it seems that the black block traveled further', 'ethnicity': 'Non-Hispanic', 'other_race': '', 'other_gender': ''}",21959,132862,exit_survey,25,survey-html-form,
1323,1_cube_black,31,0.24,1,Non-Hispanic,The grade of the ramp and color of the square,Female,0.0-15.0,0.75,White,"{'age': '31', 'race': 'White', 'gender': 'Female', 'feedback': 'The grade of the ramp and color of the square', 'ethnicity': 'Non-Hispanic', 'other_race': '', 'other_gender': ''}",26842,161295,exit_survey,25,survey-html-form,
1318,1_cube_black,39,0.32,1,Non-Hispanic,,Male,0.0-15.0,1,White,"{'age': '39', 'race': 'White', 'gender': 'Male', 'feedback': '', 'ethnicity': 'Non-Hispanic', 'other_race': '', 'other_gender': ''}",9303,129084,exit_survey,25,survey-html-form,
1326,1_cube_black,61,0.08,1,Non-Hispanic,No,Female,0.0-15.0,0.25,White,"{'age': '61', 'race': 'White', 'gender': 'Female', 'feedback': 'No', 'ethnicity': 'Non-Hispanic', 'other_race': '', 'other_gender': ''}",37693,269171,exit_survey,25,survey-html-form,
1321,1_cube_black,56,0.16,1,Non-Hispanic,None,Female,0.0-15.0,0.5,,"{'age': '56', 'gender': 'Female', 'feedback': 'None', 'ethnicity': 'Non-Hispanic', 'other_race': '', 'other_gender': ''}",24199,177842,exit_survey,25,survey-html-form,
1351,1_cube_black,48,0.16,1,Non-Hispanic,No,Male,0.0-15.0,0.5,White,"{'age': '48', 'race': 'White', 'gender': 'Male', 'feedback': 'No', 'ethnicity': 'Non-Hispanic', 'other_race': '', 'other_gender': ''}",17289,155212,exit_survey,25,survey-html-form,
1361,1_cube_black,34,0.24,1,Non-Hispanic,colors,Female,0.0-15.0,0.75,White,"{'age': '34', 'race': 'White', 'gender': 'Female', 'feedback': 'colors', 'ethnicity': 'Non-Hispanic', 'other_race': '', 'other_gender': ''}",21023,200206,exit_survey,25,survey-html-form,
1346,1_cube_black,38,0.24,1,Non-Hispanic,,Female,0.0-15.0,0.75,Multiracial,"{'age': '38', 'race': 'Multiracial', 'gender': 'Female', 'feedback': '', 'ethnicity': 'Non-Hispanic', 'other_race': '', 'other_gender': ''}",10538,127202,exit_survey,25,survey-html-form,
1360,1_cube_black,75,0.24,1,Non-Hispanic,The color of the block,Female,0.0-15.0,0.75,White,"{'age': '75', 'race': 'White', 'gender': 'Female', 'feedback': 'The color of the block', 'ethnicity': 'Non-Hispanic', 'other_race': '', 'other_gender': ''}",30779,204948,exit_survey,25,survey-html-form,
1302,1_cube_black,62,0.16,1,Non-Hispanic,The video replay,Male,0.0-15.0,0.5,White,"{'age': '62', 'race': 'White', 'gender': 'Male', 'feedback': 'The video replay', 'ethnicity': 'Non-Hispanic', 'other_race': '', 'other_gender': ''}",99183,246054,exit_survey,25,survey-html-form,
1287,1_cube_black,72,0.16,1,Non-Hispanic,The color of the block.  It seemed the red wouldn't cross but the black would,Female,0.0-15.0,0.5,White,"{'age': '72', 'race': 'White', 'gender': 'Female', 'feedback': ""The color of the block.  It seemed the red wouldn't cross but the black would"", 'ethnicity': 'Non-Hispanic', 'other_race': '', 'other_gender': ''}",95514,481919,exit_survey,25,survey-html-form,
1345,1_cube_black,40,0.16,1,,n/a,Male,0.0-15.0,0.5,White,"{'age': '40', 'race': 'White', 'gender': 'Male', 'feedback': 'n/a', 'other_race': '', 'other_gender': ''}",14265,214463,exit_survey,25,survey-html-form,
1330,1_cube_black,23,0.24,1,Non-Hispanic,,Female,0.0-15.0,0.75,Black/African American,"{'age': '23', 'race': 'Black/African American', 'gender': 'Female', 'feedback': '', 'ethnicity': 'Non-Hispanic', 'other_race': '', 'other_gender': ''}",16361,268130,exit_survey,25,survey-html-form,
1341,1_cube_black,30,0.24,1,Non-Hispanic,,Female,0.0-15.0,0.75,Black/African American,"{'age': '30', 'race': 'Black/African American', 'gender': 'Female', 'feedback': '', 'ethnicity': 'Non-Hispanic', 'other_race': '', 'other_gender': ''}",7843,145319,exit_survey,25,survey-html-form,
1357,1_cube_black,51,0.16,1,Non-Hispanic,The first one was a guess. Then I noticed that black was heavier and went further. ,Female,0.0-15.0,0.5,White,"{'age': '51', 'race': 'White', 'gender': 'Female', 'feedback': 'The first one was a guess. Then I noticed that black was heavier and went further. ', 'ethnicity': 'Non-Hispanic', 'other_race': '', 'other_gender': ''}",45431,187459,exit_survey,25,survey-html-form,
1337,1_cube_black,41,0.24,1,Non-Hispanic,"Guess at first, then learned.",Male,0.0-15.0,0.75,White,"{'age': '41', 'race': 'White', 'gender': 'Male', 'feedback': 'Guess at first, then learned.', 'ethnicity': 'Non-Hispanic', 'other_race': '', 'other_gender': ''}",18503,160908,exit_survey,25,survey-html-form,
1331,1_cube_black,54,0.24,1,Non-Hispanic,,Male,0.0-15.0,0.75,White,"{'age': '54', 'race': 'White', 'gender': 'Male', 'feedback': '', 'ethnicity': 'Non-Hispanic', 'other_race': '', 'other_gender': ''}",15679,159454,exit_survey,25,survey-html-form,
1328,1_cube_black,65,0.16,1,Non-Hispanic,The block color was most influential,Male,0.0-15.0,0.5,White,"{'age': '65', 'race': 'White', 'gender': 'Male', 'feedback': 'The block color was most influential', 'ethnicity': 'Non-Hispanic', 'other_race': '', 'other_gender': ''}",28541,171852,exit_survey,25,survey-html-form,
1292,1_cube_black,66,0.32,1,Non-Hispanic,Just mostly guessed. Especially with the first one as no idea of the coefficient of friction of the block or ramp. ,Male,0.0-15.0,1,White,"{'age': '66', 'race': 'White', 'gender': 'Male', 'feedback': 'Just mostly guessed. Especially with the first one as no idea of the coefficient of friction of the block or ramp. ', 'ethnicity': 'Non-Hispanic', 'other_race': '', 'other_gender': ''}",77053,290269,exit_survey,25,survey-html-form,
1344,1_cube_black,47,0.32,1,Non-Hispanic,"My first guess was purely a guess. As was the 3rd guess. After that I used educated guesses based on the colors of the blocks/ramps, as that seemed to have an effect on travel distance. ",Female,0.0-15.0,1,White,"{'age': '47', 'race': 'White', 'gender': 'Female', 'feedback': 'My first guess was purely a guess. As was the 3rd guess. After that I used educated guesses based on the colors of the blocks/ramps, as that seemed to have an effect on travel distance. ', 'ethnicity': 'Non-Hispanic', 'other_race': '', 'other_gender': ''}",92422,272123,exit_survey,25,survey-html-form,
1298,1_cube_black,21,0.24,1,Non-Hispanic,,Male,0.0-15.0,0.75,White,"{'age': '21', 'race': 'White', 'gender': 'Male', 'feedback': '', 'ethnicity': 'Non-Hispanic', 'other_race': '', 'other_gender': ''}",13205,102900,exit_survey,25,survey-html-form,
1350,1_cube_black,30,0.16,1,,I just tried to go with what I recalled seeing.,,0.0-15.0,0.5,,"{'age': '30', 'feedback': 'I just tried to go with what I recalled seeing.', 'other_race': '', 'other_gender': ''}",17470,135745,exit_survey,25,survey-html-form,
1288,1_cube_black,22,0.16,1,Non-Hispanic,"It was mostly just a guess for the first two, then an educated guess for the second ramp based on what I thought the difference would be.",Male,0.0-15.0,0.5,White,"{'age': '22', 'race': 'White', 'gender': 'Male', 'feedback': 'It was mostly just a guess for the first two, then an educated guess for the second ramp based on what I thought the difference would be.', 'ethnicity': 'Non-Hispanic', 'other_race': '', 'other_gender': ''}",53339,214529,exit_survey,25,survey-html-form,
1316,1_cube_black,56,0.08,1,Non-Hispanic,i looked at the level of drop and made an educated guress,Non-binary,0.0-15.0,0.25,White,"{'age': '56', 'race': 'White', 'gender': 'Non-binary', 'feedback': 'i looked at the level of drop and made an educated guress', 'ethnicity': 'Non-Hispanic', 'other_race': '', 'other_gender': ''}",35639,190915,exit_survey,25,survey-html-form,
1358,1_cube_black,52,0.16,1,Non-Hispanic,I based my predictions on which color of cube crossed the finish line in the first trials shown. I also tried to remember how close or far each color of cube was from the finish line. I was curious whether or not the color of the ramp would influence the outcome. It seemed that only the color of the cube was an influencing factor. Thank you!,Female,0.0-15.0,0.5,White,"{'age': '52', 'race': 'White', 'gender': 'Female', 'feedback': 'I based my predictions on which color of cube crossed the finish line in the first trials shown. I also tried to remember how close or far each color of cube was from the finish line. I was curious whether or not the color of the ramp would influence the outcome. It seemed that only the color of the cube was an influencing factor. Thank you!', 'ethnicity': 'Non-Hispanic', 'other_race': '', 'other_gender': ''}",205232,688119,exit_survey,25,survey-html-form,
1300,1_cube_black,31,0.24,1,Non-Hispanic,I assumed the color of the cube was more important than the color of the ramp in terms of the distance it would travel.,Male,0.0-15.0,0.75,White,"{'age': '31', 'race': 'White', 'gender': 'Male', 'feedback': 'I assumed the color of the cube was more important than the color of the ramp in terms of the distance it would travel.', 'ethnicity': 'Non-Hispanic', 'other_race': '', 'other_gender': ''}",43688,260847,exit_survey,25,survey-html-form,
1297,1_cube_black,33,0.16,1,Hispanic,One block seemed to slider further than the other. The ramp seemed to matter too.,Male,0.0-15.0,0.5,Multiracial,"{'age': '33', 'race': 'Multiracial', 'gender': 'Male', 'feedback': 'One block seemed to slider further than the other. The ramp seemed to matter too.', 'ethnicity': 'Hispanic', 'other_race': '', 'other_gender': ''}",41413,153872,exit_survey,25,survey-html-form,
1327,1_cube_black,35,0.16,1,Non-Hispanic,,Male,0.0-15.0,0.5,White,"{'age': '35', 'race': 'White', 'gender': 'Male', 'feedback': '', 'ethnicity': 'Non-Hispanic', 'other_race': '', 'other_gender': ''}",14097,163806,exit_survey,25,survey-html-form,
1359,1_cube_black,61,0.16,1,Non-Hispanic,I changed my choice based on how far the same color block went.,Female,0.0-15.0,0.5,White,"{'age': '61', 'race': 'White', 'gender': 'Female', 'feedback': 'I changed my choice based on how far the same color block went.', 'ethnicity': 'Non-Hispanic', 'other_race': '', 'other_gender': ''}",136117,306932,exit_survey,25,survey-html-form,
1248,2_cube_red,36,0.24,2,Non-Hispanic,"I started with 'yes' based on not having any other information, it was a guess. Then I noticed that the blocks slowed down with each iteration, so I answered 'no' for trial 4.",Male,0.0-15.0,0.75,White,"{'age': '36', 'race': 'White', 'gender': 'Male', 'feedback': ""I started with 'yes' based on not having any other information, it was a guess. Then I noticed that the blocks slowed down with each iteration, so I answered 'no' for trial 4."", 'ethnicity': 'Non-Hispanic', 'other_race': '', 'other_gender': ''}",60493,181434,exit_survey,25,survey-html-form,
1271,2_cube_red,22,0.08,2,Non-Hispanic,,Male,0.0-15.0,0.25,White,"{'age': '22', 'race': 'White', 'gender': 'Male', 'feedback': '', 'ethnicity': 'Non-Hispanic', 'other_race': '', 'other_gender': ''}",12679,259560,exit_survey,25,survey-html-form,
1257,2_cube_red,23,0.32,2,Non-Hispanic,"I looked at the color of the cube, and assumed that the red cube would cross the finish line, whereas the black cube wouldn't ",Male,0.0-15.0,1,Native Hawaiian/Pacific Islander,"{'age': '23', 'race': 'Native Hawaiian/Pacific Islander', 'gender': 'Male', 'feedback': ""I looked at the color of the cube, and assumed that the red cube would cross the finish line, whereas the black cube wouldn't "", 'ethnicity': 'Non-Hispanic', 'other_race': '', 'other_gender': ''}",45921,170488,exit_survey,25,survey-html-form,
1269,2_cube_red,37,0.16,2,Non-Hispanic,,Female,0.0-15.0,0.5,White,"{'age': '37', 'race': 'White', 'gender': 'Female', 'feedback': '', 'ethnicity': 'Non-Hispanic', 'other_race': '', 'other_gender': ''}",13982,148652,exit_survey,25,survey-html-form,
1283,2_cube_red,27,0.08,2,Non-Hispanic,"I went with my gut feeling, and on the second of the red block trials, I assumed it may be the opposite answer. ",Female,0.0-15.0,0.25,Black/African American,"{'age': '27', 'race': 'Black/African American', 'gender': 'Female', 'feedback': 'I went with my gut feeling, and on the second of the red block trials, I assumed it may be the opposite answer. ', 'ethnicity': 'Non-Hispanic', 'other_race': '', 'other_gender': ''}",51301,189408,exit_survey,25,survey-html-form,
1254,2_cube_red,24,0.16,2,Non-Hispanic,I guessed randomly,Male,0.0-15.0,0.5,Asian,"{'age': '24', 'race': 'Asian', 'gender': 'Male', 'feedback': 'I guessed randomly', 'ethnicity': 'Non-Hispanic', 'other_race': '', 'other_gender': ''}",13893,128346,exit_survey,25,survey-html-form,
1284,2_cube_red,20,0.24,2,Non-Hispanic,I got the first trial with the black block wrong and then based my answered based on that.,Male,0.0-15.0,0.75,Asian,"{'age': '20', 'race': 'Asian', 'gender': 'Male', 'feedback': 'I got the first trial with the black block wrong and then based my answered based on that.', 'ethnicity': 'Non-Hispanic', 'other_race': '', 'other_gender': ''}",30052,121459,exit_survey,25,survey-html-form,
1262,2_cube_red,44,0.08,2,Non-Hispanic,I was looking at the cube color and then which color ramp the cube moved farther from,Male,0.0-15.0,0.25,White,"{'age': '44', 'race': 'White', 'gender': 'Male', 'feedback': 'I was looking at the cube color and then which color ramp the cube moved farther from', 'ethnicity': 'Non-Hispanic', 'other_race': '', 'other_gender': ''}",28607,150259,exit_survey,25,survey-html-form,
1277,2_cube_red,28,0.08,2,Hispanic,Instinct and the distance between the object and the line.,Female,0.0-15.0,0.25,White,"{'age': '28', 'race': 'White', 'gender': 'Female', 'feedback': 'Instinct and the distance between the object and the line.', 'ethnicity': 'Hispanic', 'other_race': '', 'other_gender': ''}",37601,281775,exit_survey,25,survey-html-form,
1261,2_cube_red,67,0.24,2,Non-Hispanic,guess that red crossed more than black,,0.0-15.0,0.75,White,"{'age': '67', 'race': 'White', 'feedback': 'guess that red crossed more than black', 'ethnicity': 'Non-Hispanic', 'other_race': '', 'other_gender': ''}",45551,225603,exit_survey,25,survey-html-form,
1258,2_cube_red,54,0.24,2,Non-Hispanic,"I just went with my ""gut"" feeling",Female,0.0-15.0,0.75,White,"{'age': '54', 'race': 'White', 'gender': 'Female', 'feedback': 'I just went with my ""gut"" feeling', 'ethnicity': 'Non-Hispanic', 'other_race': '', 'other_gender': ''}",53264,306059,exit_survey,25,survey-html-form,
1281,2_cube_red,21,0.16,2,Non-Hispanic,,Female,0.0-15.0,0.5,White,"{'age': '21', 'race': 'White', 'gender': 'Female', 'feedback': '', 'ethnicity': 'Non-Hispanic', 'other_race': '', 'other_gender': ''}",7495,114761,exit_survey,25,survey-html-form,
1280,2_cube_red,22,0.32,2,Non-Hispanic,"I mostly was focused on block color, the black ones seemed to not cross and the red seemed to cross.",Female,0.0-15.0,1,White,"{'age': '22', 'race': 'White', 'gender': 'Female', 'feedback': 'I mostly was focused on block color, the black ones seemed to not cross and the red seemed to cross.', 'ethnicity': 'Non-Hispanic', 'other_race': '', 'other_gender': ''}",32621,159673,exit_survey,25,survey-html-form,
1260,2_cube_red,23,0.32,2,Hispanic,,Female,0.0-15.0,1,White,"{'age': '23', 'race': 'White', 'gender': 'Female', 'feedback': '', 'ethnicity': 'Hispanic', 'other_race': '', 'other_gender': ''}",8915,115510,exit_survey,25,survey-html-form,
1276,2_cube_red,23,0.16,2,Non-Hispanic,I think the black cube is not likely to cross the line,Female,0.0-15.0,0.5,White,"{'age': '23', 'race': 'White', 'gender': 'Female', 'feedback': 'I think the black cube is not likely to cross the line', 'ethnicity': 'Non-Hispanic', 'other_race': '', 'other_gender': ''}",52077,211723,exit_survey,25,survey-html-form,
1268,2_cube_red,19,0.08,2,Non-Hispanic,"I was seeking patterns in the color combinations, but decided to go with my gut when I couldn't find one quickly enough",Female,0.0-15.0,0.25,White,"{'age': '19', 'race': 'White', 'gender': 'Female', 'feedback': ""I was seeking patterns in the color combinations, but decided to go with my gut when I couldn't find one quickly enough"", 'ethnicity': 'Non-Hispanic', 'other_race': '', 'other_gender': ''}",39780,146078,exit_survey,25,survey-html-form,
1274,2_cube_red,22,0.32,2,Non-Hispanic,I thought the red land longer than the black because black seems heavier.,Female,0.0-15.0,1,White,"{'age': '22', 'race': 'White', 'gender': 'Female', 'feedback': 'I thought the red land longer than the black because black seems heavier.', 'ethnicity': 'Non-Hispanic', 'other_race': '', 'other_gender': ''}",38848,200240,exit_survey,25,survey-html-form,
1275,2_cube_red,50,0.24,2,Non-Hispanic,,Female,0.0-15.0,0.75,Black/African American,"{'age': '50', 'race': 'Black/African American', 'gender': 'Female', 'feedback': '', 'ethnicity': 'Non-Hispanic', 'other_race': '', 'other_gender': ''}",17140,243769,exit_survey,25,survey-html-form,
1250,2_cube_red,22,0.08,2,Non-Hispanic,Just random Guessing and thinking where it could land,Male,0.0-15.0,0.25,Asian,"{'age': '22', 'race': 'Asian', 'gender': 'Male', 'feedback': 'Just random Guessing and thinking where it could land', 'ethnicity': 'Non-Hispanic', 'other_race': '', 'other_gender': ''}",17248,187048,exit_survey,25,survey-html-form,
1278,2_cube_red,56,0.32,2,Non-Hispanic,Only guessed the outcome. No specific factors.,Male,0.0-15.0,1,Black/African American,"{'age': '56', 'race': 'Black/African American', 'gender': 'Male', 'feedback': 'Only guessed the outcome. No specific factors.', 'ethnicity': 'Non-Hispanic', 'other_race': '', 'other_gender': ''}",93073,375500,exit_survey,25,survey-html-form,
1264,2_cube_red,39,0.24,2,Non-Hispanic,"The first couple of answers were guesses, but the last two were educated guesses based on the previous results.",Female,0.0-15.0,0.75,White,"{'age': '39', 'race': 'White', 'gender': 'Female', 'feedback': 'The first couple of answers were guesses, but the last two were educated guesses based on the previous results.', 'ethnicity': 'Non-Hispanic', 'other_race': '', 'other_gender': ''}",44285,174260,exit_survey,25,survey-html-form,
1267,2_cube_red,37,0.32,2,Non-Hispanic,"Nothing, strictly guess ",Male,0.0-15.0,1,White,"{'age': '37', 'race': 'White', 'gender': 'Male', 'feedback': 'Nothing, strictly guess ', 'ethnicity': 'Non-Hispanic', 'other_race': '', 'other_gender': ''}",20378,158724,exit_survey,25,survey-html-form,
1259,2_cube_red,37,0.16,2,Non-Hispanic,,Female,0.0-15.0,0.5,White,"{'age': '37', 'race': 'White', 'gender': 'Female', 'feedback': '', 'ethnicity': 'Non-Hispanic', 'other_race': '', 'other_gender': ''}",7182,142874,exit_survey,25,survey-html-form,
1270,2_cube_red,23,0.16,2,Hispanic,THE COLORS OF THE RAMPS AND BLOCKS,Female,0.0-15.0,0.5,White,"{'age': '23', 'race': 'White', 'gender': 'Female', 'feedback': 'THE COLORS OF THE RAMPS AND BLOCKS', 'ethnicity': 'Hispanic', 'other_race': '', 'other_gender': ''}",69217,323107,exit_survey,25,survey-html-form,
1282,2_cube_red,53,0.32,2,Non-Hispanic,life experience,Female,0.0-15.0,1,White,"{'age': '53', 'race': 'White', 'gender': 'Female', 'feedback': 'life experience', 'ethnicity': 'Non-Hispanic', 'other_race': '', 'other_gender': ''}",22946,185370,exit_survey,25,survey-html-form,
1256,2_cube_red,28,0.24,2,Non-Hispanic,,Female,0.0-15.0,0.75,White,"{'age': '28', 'race': 'White', 'gender': 'Female', 'feedback': '', 'ethnicity': 'Non-Hispanic', 'other_race': '', 'other_gender': ''}",16188,171518,exit_survey,25,survey-html-form,
1279,2_cube_red,36,0.24,2,Non-Hispanic,None,Male,0.0-15.0,0.75,Black/African American,"{'age': '36', 'race': 'Black/African American', 'gender': 'Male', 'feedback': 'None', 'ethnicity': 'Non-Hispanic', 'other_race': '', 'other_gender': ''}",15856,130066,exit_survey,25,survey-html-form,
1252,2_cube_red,29,0.16,2,Non-Hispanic,Patterns,Female,0.0-15.0,0.5,White,"{'age': '29', 'race': 'White', 'gender': 'Female', 'feedback': 'Patterns', 'ethnicity': 'Non-Hispanic', 'other_race': '', 'other_gender': ''}",23954,150630,exit_survey,25,survey-html-form,
1241,2_cube_red,29,0.16,2,Non-Hispanic,the color of the cube and ramp,Female,0.0-15.0,0.5,White,"{'age': '29', 'race': 'White', 'gender': 'Female', 'feedback': 'the color of the cube and ramp', 'ethnicity': 'Non-Hispanic', 'other_race': '', 'other_gender': ''}",19348,120087,exit_survey,25,survey-html-form,
1253,2_cube_red,27,0.24,2,Hispanic,I realized that the red blocks traveled farther than the black blocks.,Female,0.0-15.0,0.75,White,"{'age': '27', 'race': 'White', 'gender': 'Female', 'feedback': 'I realized that the red blocks traveled farther than the black blocks.', 'ethnicity': 'Hispanic', 'other_race': '', 'other_gender': ''}",27659,131283,exit_survey,25,survey-html-form,
1251,2_cube_red,21,0.16,2,,,Female,0.0-15.0,0.5,Asian,"{'age': '21', 'race': 'Asian', 'gender': 'Female', 'feedback': '', 'other_race': '', 'other_gender': ''}",5889,107017,exit_survey,25,survey-html-form,
1249,2_cube_red,32,0.16,2,Non-Hispanic,I thought the first 1 would go and the last wouldn't,Male,0.0-15.0,0.5,White,"{'age': '32', 'race': 'White', 'gender': 'Male', 'feedback': ""I thought the first 1 would go and the last wouldn't"", 'ethnicity': 'Non-Hispanic', 'other_race': '', 'other_gender': ''}",38324,161615,exit_survey,25,survey-html-form,
1263,2_cube_red,22,0.24,2,Non-Hispanic,It depended on the color and the ramp itself. ,Female,0.0-15.0,0.75,Asian,"{'age': '22', 'race': 'Asian', 'gender': 'Female', 'feedback': 'It depended on the color and the ramp itself. ', 'ethnicity': 'Non-Hispanic', 'other_race': '', 'other_gender': ''}",22415,151919,exit_survey,25,survey-html-form,
1255,2_cube_red,27,0.24,2,Non-Hispanic,It seemed as though the red block was heavier and would build more momentum regardless of the ramp.,Female,0.0-15.0,0.75,White,"{'age': '27', 'race': 'White', 'gender': 'Female', 'feedback': 'It seemed as though the red block was heavier and would build more momentum regardless of the ramp.', 'ethnicity': 'Non-Hispanic', 'other_race': '', 'other_gender': ''}",40124,191724,exit_survey,25,survey-html-form,
1266,2_cube_red,21,0.16,2,Non-Hispanic,I tried to think of a trend when answering. Such as two yes in a row or two no in a row,Female,0.0-15.0,0.5,Black/African American,"{'age': '21', 'race': 'Black/African American', 'gender': 'Female', 'feedback': 'I tried to think of a trend when answering. Such as two yes in a row or two no in a row', 'ethnicity': 'Non-Hispanic', 'other_race': '', 'other_gender': ''}",33131,153714,exit_survey,25,survey-html-form,
1273,2_cube_red,22,0.16,2,Non-Hispanic,,Female,0.0-15.0,0.5,White,"{'age': '22', 'race': 'White', 'gender': 'Female', 'feedback': '', 'ethnicity': 'Non-Hispanic', 'other_race': '', 'other_gender': ''}",9539,117482,exit_survey,25,survey-html-form,
1272,2_cube_red,76,0.24,2,Non-Hispanic,I was guessing,Female,0.0-15.0,0.75,White,"{'age': '76', 'race': 'White', 'gender': 'Female', 'feedback': 'I was guessing', 'ethnicity': 'Non-Hispanic', 'other_race': '', 'other_gender': ''}",44941,491882,exit_survey,29,survey-html-form,
1265,2_cube_red,47,0.24,2,Non-Hispanic,the color of the cube determine whether it crossed the line or not.,Male,0.0-15.0,0.75,White,"{'age': '47', 'race': 'White', 'gender': 'Male', 'feedback': 'the color of the cube determine whether it crossed the line or not.', 'ethnicity': 'Non-Hispanic', 'other_race': '', 'other_gender': ''}",36830,340803,exit_survey,25,survey-html-form,
1370,3_ramp_blue,31,0.24,3,Non-Hispanic,,Male,0.0-15.0,0.75,White,"{'age': '31', 'race': 'White', 'gender': 'Male', 'feedback': '', 'ethnicity': 'Non-Hispanic', 'other_race': '', 'other_gender': ''}",7668,117667,exit_survey,25,survey-html-form,
1368,3_ramp_blue,26,0.16,3,Non-Hispanic,"the color of the block, and the size and color of the ramp",Female,0.0-15.0,0.5,White,"{'age': '26', 'race': 'White', 'gender': 'Female', 'feedback': 'the color of the block, and the size and color of the ramp', 'ethnicity': 'Non-Hispanic', 'other_race': '', 'other_gender': ''}",45159,258915,exit_survey,25,survey-html-form,
1386,3_ramp_blue,42,0.24,3,Non-Hispanic,"I tried to see how far the black line was, and how high the cube was positioned. ",Female,0.0-15.0,0.75,White,"{'age': '42', 'race': 'White', 'gender': 'Female', 'feedback': 'I tried to see how far the black line was, and how high the cube was positioned. ', 'ethnicity': 'Non-Hispanic', 'other_race': '', 'other_gender': ''}",27313,200430,exit_survey,25,survey-html-form,
1373,3_ramp_blue,38,0.08,3,,,Male,0.0-15.0,0.25,White,"{'age': '38', 'race': 'White', 'gender': 'Male', 'feedback': '', 'other_race': '', 'other_gender': ''}",25705,177954,exit_survey,25,survey-html-form,
1374,3_ramp_blue,42,0.08,3,Non-Hispanic,None,Female,0.0-15.0,0.25,White,"{'age': '42', 'race': 'White', 'gender': 'Female', 'feedback': 'None', 'ethnicity': 'Non-Hispanic', 'other_race': '', 'other_gender': ''}",18257,125362,exit_survey,25,survey-html-form,
1411,3_ramp_blue,26,0.16,3,Non-Hispanic,In the first scenario I took a intuitive guess.  From there out I took into account how the physics work for each block and ramp.,Non-binary,0.0-15.0,0.5,White,"{'age': '26', 'race': 'White', 'gender': 'Non-binary', 'feedback': 'In the first scenario I took a intuitive guess.  From there out I took into account how the physics work for each block and ramp.', 'ethnicity': 'Non-Hispanic', 'other_race': '', 'other_gender': ''}",58862,276922,exit_survey,25,survey-html-form,
1247,3_ramp_blue,27,0.08,3,Non-Hispanic,the way the cube was on the slide,Female,0.0-15.0,0.25,White,"{'age': '27', 'race': 'White', 'gender': 'Female', 'feedback': 'the way the cube was on the slide', 'ethnicity': 'Non-Hispanic', 'other_race': '', 'other_gender': ''}",32313,185911,exit_survey,25,survey-html-form,
1244,3_ramp_blue,33,0.24,3,Non-Hispanic,N/A,Female,0.0-15.0,0.75,White,"{'age': '33', 'race': 'White', 'gender': 'Female', 'feedback': 'N/A', 'ethnicity': 'Non-Hispanic', 'other_race': '', 'other_gender': ''}",15084,255330,exit_survey,25,survey-html-form,
1388,3_ramp_blue,31,0.24,3,Non-Hispanic,"How the previous experiment's went, it seems the red block was lighter and moved further, and the blue slope was faster",Male,0.0-15.0,0.75,White,"{'age': '31', 'race': 'White', 'gender': 'Male', 'feedback': ""How the previous experiment's went, it seems the red block was lighter and moved further, and the blue slope was faster"", 'ethnicity': 'Non-Hispanic', 'other_race': '', 'other_gender': ''}",76601,229886,exit_survey,25,survey-html-form,
1390,3_ramp_blue,43,0.16,3,Non-Hispanic,"Observed no factors that appeared to affect how the block would slide, so chose a consistent answer.",Male,0.0-15.0,0.5,White,"{'age': '43', 'race': 'White', 'gender': 'Male', 'feedback': 'Observed no factors that appeared to affect how the block would slide, so chose a consistent answer.', 'ethnicity': 'Non-Hispanic', 'other_race': '', 'other_gender': ''}",55056,176999,exit_survey,25,survey-html-form,
1416,3_ramp_blue,32,0.24,3,Non-Hispanic,,Male,0.0-15.0,0.75,White,"{'age': '32', 'race': 'White', 'gender': 'Male', 'feedback': '', 'ethnicity': 'Non-Hispanic', 'other_race': '', 'other_gender': ''}",7059,109071,exit_survey,25,survey-html-form,
1406,3_ramp_blue,40,0,3,,just guess work,Male,0.0-15.0,0,Asian,"{'age': '40', 'race': 'Asian', 'gender': 'Male', 'feedback': 'just guess work', 'other_race': '', 'other_gender': ''}",23399,184083,exit_survey,25,survey-html-form,
1382,3_ramp_blue,20,0.16,3,Non-Hispanic,,Female,0.0-15.0,0.5,White,"{'age': '20', 'race': 'White', 'gender': 'Female', 'feedback': '', 'ethnicity': 'Non-Hispanic', 'other_race': '', 'other_gender': ''}",8824,119068,exit_survey,25,survey-html-form,
1408,3_ramp_blue,58,0.24,3,,,Female,0.0-15.0,0.75,White,"{'age': '58', 'race': 'White', 'gender': 'Female', 'feedback': '', 'other_race': '', 'other_gender': ''}",12629,159940,exit_survey,25,survey-html-form,
1404,3_ramp_blue,58,0.16,3,Non-Hispanic,"at first I just guessed, but then I tried to predict based on what I saw",Female,0.0-15.0,0.5,White,"{'age': '58', 'race': 'White', 'gender': 'Female', 'feedback': 'at first I just guessed, but then I tried to predict based on what I saw', 'ethnicity': 'Non-Hispanic', 'other_race': '', 'other_gender': ''}",52999,214860,exit_survey,25,survey-html-form,
1398,3_ramp_blue,24,0.32,3,Non-Hispanic,How wide the slant was or how large the bloc k was. ,Female,0.0-15.0,1,Black/African American,"{'age': '24', 'race': 'Black/African American', 'gender': 'Female', 'feedback': 'How wide the slant was or how large the bloc k was. ', 'ethnicity': 'Non-Hispanic', 'other_race': '', 'other_gender': ''}",26130,156850,exit_survey,25,survey-html-form,
1376,3_ramp_blue,39,0.24,3,Non-Hispanic,no,Female,0.0-15.0,0.75,White,"{'age': '39', 'race': 'White', 'gender': 'Female', 'feedback': 'no', 'ethnicity': 'Non-Hispanic', 'other_race': '', 'other_gender': ''}",10628,144886,exit_survey,29,survey-html-form,
1418,3_ramp_blue,27,0.24,3,Non-Hispanic,Only intuition,Female,0.0-15.0,0.75,White,"{'age': '27', 'race': 'White', 'gender': 'Female', 'feedback': 'Only intuition', 'ethnicity': 'Non-Hispanic', 'other_race': '', 'other_gender': ''}",73588,502391,exit_survey,25,survey-html-form,
1396,3_ramp_blue,23,0.24,3,Non-Hispanic,"I was thinking that depending on the type of colour, the material would be different.",Male,0.0-15.0,0.75,Multiracial,"{'age': '23', 'race': 'Multiracial', 'gender': 'Male', 'feedback': 'I was thinking that depending on the type of colour, the material would be different.', 'ethnicity': 'Non-Hispanic', 'other_race': '', 'other_gender': ''}",32830,261068,exit_survey,25,survey-html-form,
1378,3_ramp_blue,37,0.24,3,Non-Hispanic,I just guessed because I felt it was probably random like a dice roll. ,Non-binary,0.0-15.0,0.75,American Indian/Alaska Native,"{'age': '37', 'race': 'American Indian/Alaska Native', 'gender': 'Non-binary', 'feedback': 'I just guessed because I felt it was probably random like a dice roll. ', 'ethnicity': 'Non-Hispanic', 'other_race': '', 'other_gender': ''}",37583,176988,exit_survey,25,survey-html-form,
1402,3_ramp_blue,37,0.16,3,Non-Hispanic,where the block was at the top,Female,0.0-15.0,0.5,White,"{'age': '37', 'race': 'White', 'gender': 'Female', 'feedback': 'where the block was at the top', 'ethnicity': 'Non-Hispanic', 'other_race': '', 'other_gender': ''}",22926,164461,exit_survey,25,survey-html-form,
1246,3_ramp_blue,38,0.24,3,Non-Hispanic,patterns of trials,Female,0.0-15.0,0.75,White,"{'age': '38', 'race': 'White', 'gender': 'Female', 'feedback': 'patterns of trials', 'ethnicity': 'Non-Hispanic', 'other_race': '', 'other_gender': ''}",17559,155030,exit_survey,25,survey-html-form,
1392,3_ramp_blue,36,0.08,3,Hispanic,I was trying to figure out what changed the distance the most out of all the objects. So the slides were the most important part to me since they changed the distance the most.,Male,0.0-15.0,0.25,White,"{'age': '36', 'race': 'White', 'gender': 'Male', 'feedback': 'I was trying to figure out what changed the distance the most out of all the objects. So the slides were the most important part to me since they changed the distance the most.', 'ethnicity': 'Hispanic', 'other_race': '', 'other_gender': ''}",69186,197459,exit_survey,25,survey-html-form,
1394,3_ramp_blue,32,0.16,3,Non-Hispanic,,Male,0.0-15.0,0.5,White,"{'age': '32', 'race': 'White', 'gender': 'Male', 'feedback': '', 'ethnicity': 'Non-Hispanic', 'other_race': '', 'other_gender': ''}",9117,323540,exit_survey,25,survey-html-form,
1366,3_ramp_blue,58,0.16,3,Non-Hispanic,,Female,0.0-15.0,0.5,White,"{'age': '58', 'race': 'White', 'gender': 'Female', 'feedback': '', 'ethnicity': 'Non-Hispanic', 'other_race': '', 'other_gender': ''}",22785,176116,exit_survey,25,survey-html-form,
1410,3_ramp_blue,65,0.24,3,Non-Hispanic,,Male,0.0-15.0,0.75,american,"{'age': '65', 'race': 'other_race', 'gender': 'Male', 'feedback': '', 'ethnicity': 'Non-Hispanic', 'other_race': 'american', 'other_gender': ''}",18687,153527,exit_survey,25,survey-html-form,
1400,3_ramp_blue,25,0.16,3,Non-Hispanic,The color combinations of the block and ramp.,Female,0.0-15.0,0.5,White,"{'age': '25', 'race': 'White', 'gender': 'Female', 'feedback': 'The color combinations of the block and ramp.', 'ethnicity': 'Non-Hispanic', 'other_race': '', 'other_gender': ''}",26360,191188,exit_survey,25,survey-html-form,
1384,3_ramp_blue,29,0.32,3,Non-Hispanic,"I guessed that the blue ramp would successfully cross the finish line, while the yellow would not. In the second phase, I simply remembered where the blocks landed in the previous video and chose those.",Female,0.0-15.0,1,White,"{'age': '29', 'race': 'White', 'gender': 'Female', 'feedback': 'I guessed that the blue ramp would successfully cross the finish line, while the yellow would not. In the second phase, I simply remembered where the blocks landed in the previous video and chose those.', 'ethnicity': 'Non-Hispanic', 'other_race': '', 'other_gender': ''}",47003,175863,exit_survey,25,survey-html-form,
1380,3_ramp_blue,46,0.16,3,Non-Hispanic,the color of the ramp seemed to make a difference although they appeared to be the same. ,Female,0.0-15.0,0.5,White,"{'age': '46', 'race': 'White', 'gender': 'Female', 'feedback': 'the color of the ramp seemed to make a difference although they appeared to be the same. ', 'ethnicity': 'Non-Hispanic', 'other_race': '', 'other_gender': ''}",26153,148401,exit_survey,25,survey-html-form,
1414,3_ramp_blue,24,0.16,3,Non-Hispanic,,Male,0.0-15.0,0.5,White,"{'age': '24', 'race': 'White', 'gender': 'Male', 'feedback': '', 'ethnicity': 'Non-Hispanic', 'other_race': '', 'other_gender': ''}",9404,129976,exit_survey,25,survey-html-form,
