workerid,proliferate.condition,accuracy,accuracy_bool,correct_img,correct_key,correct_response,hidden_img,img_selected,internal_node_id,question_order,response,rt,rule,stimulus,time_elapsed,trial,trial_index,trial_type,error
815,color_on,True,1,,j,on,blicket_images/dc.jpg,,0.0-6.0,,j,1723,cylinder,blicket_images/dc.jpg,46348,blicket,10,image-keyboard-response,
815,color_on,False,0,,f,off,blicket_images/ds.jpg,,0.0-8.0,,j,1241,cylinder,blicket_images/ds.jpg,49351,blicket,12,image-keyboard-response,
815,color_on,True,1,blicket_images/ds.jpg,,ds,,blicket_images/ds.jpg,0.0-9.0,,ds,3427,cylinder,"Which of these options shows the image from the last trial, that you just saw?",52780,pop_quiz,13,html-button-response,
815,color_on,False,0,,,"['dc', 'lc']",,,0.0-10.0,[0],['dc'],4823,cylinder,,57611,rule_question,14,survey-multi-select,
749,color_on,True,1,,f,off,blicket_images/lc.jpg,,0.0-6.0,,f,3784,dark,blicket_images/lc.jpg,66254,blicket,10,image-keyboard-response,
749,color_on,True,1,,j,on,blicket_images/ds.jpg,,0.0-8.0,,j,4215,dark,blicket_images/ds.jpg,215620,blicket,12,image-keyboard-response,
749,color_on,True,1,blicket_images/ds.jpg,,ds,,blicket_images/ds.jpg,0.0-9.0,,ds,4179,dark,"Which of these options shows the image from the last trial, that you just saw?",219809,pop_quiz,13,html-button-response,
749,color_on,True,1,,,"['dc', 'ds']",,,0.0-10.0,[0],"['dc', 'ds']",10094,dark,,229910,rule_question,14,survey-multi-select,
745,color_on,False,0,,f,off,blicket_images/ds.jpg,,0.0-6.0,,j,2919,light,blicket_images/ds.jpg,111834,blicket,16,image-keyboard-response,
745,color_on,True,1,,j,on,blicket_images/ls.jpg,,0.0-8.0,,j,3214,light,blicket_images/ls.jpg,115937,blicket,18,image-keyboard-response,
745,color_on,True,1,blicket_images/ls.jpg,,ls,,blicket_images/ls.jpg,0.0-9.0,,ls,5508,light,"Which of these options shows the image from the last trial, that you just saw?",121451,pop_quiz,19,html-button-response,
745,color_on,False,0,,,"['lc', 'ls']",,,0.0-10.0,[0],['ls'],4134,light,,125593,rule_question,20,survey-multi-select,
799,color_on,False,0,,f,off,blicket_images/lc.jpg,,0.0-6.0,,j,5437,dark,blicket_images/lc.jpg,103276,blicket,16,image-keyboard-response,
799,color_on,True,1,,j,on,blicket_images/ds.jpg,,0.0-8.0,,j,4223,dark,blicket_images/ds.jpg,108477,blicket,18,image-keyboard-response,
799,color_on,True,1,blicket_images/ds.jpg,,ds,,blicket_images/ds.jpg,0.0-9.0,,ds,3109,dark,"Which of these options shows the image from the last trial, that you just saw?",111616,pop_quiz,19,html-button-response,
799,color_on,False,0,,,"['dc', 'ds']",,,0.0-10.0,[0],['ds'],7292,dark,,118916,rule_question,20,survey-multi-select,
840,color_on,True,1,,j,on,blicket_images/ls.jpg,,0.0-6.0,,j,3891,light,blicket_images/ls.jpg,61616,blicket,10,image-keyboard-response,
840,color_on,False,0,,j,on,blicket_images/lc.jpg,,0.0-8.0,,f,1122,light,blicket_images/lc.jpg,64166,blicket,12,image-keyboard-response,
840,color_on,False,0,blicket_images/lc.jpg,,lc,,blicket_images/ls.jpg,0.0-9.0,,ls,3154,light,"Which of these options shows the image from the last trial, that you just saw?",67321,pop_quiz,13,html-button-response,
840,color_on,False,0,,,"['lc', 'ls']",,,0.0-10.0,[0],['ls'],2626,light,,69949,rule_question,14,survey-multi-select,
851,color_on,False,0,,f,off,blicket_images/lc.jpg,,0.0-6.0,,j,4989,dark,blicket_images/lc.jpg,90081,blicket,10,image-keyboard-response,
851,color_on,True,1,,j,on,blicket_images/ds.jpg,,0.0-8.0,,j,1124,dark,blicket_images/ds.jpg,98412,blicket,12,image-keyboard-response,
851,color_on,True,1,blicket_images/ds.jpg,,ds,,blicket_images/ds.jpg,0.0-9.0,,ds,3978,dark,"Which of these options shows the image from the last trial, that you just saw?",102394,pop_quiz,13,html-button-response,
851,color_on,False,0,,,"['dc', 'ds']",,,0.0-10.0,[0],['ds'],5401,dark,,107815,rule_question,14,survey-multi-select,
848,color_on,False,0,,f,off,blicket_images/dc.jpg,,0.0-6.0,,j,1356,light,blicket_images/dc.jpg,52810,blicket,10,image-keyboard-response,
848,color_on,True,1,,j,on,blicket_images/ls.jpg,,0.0-8.0,,j,1127,light,blicket_images/ls.jpg,54992,blicket,12,image-keyboard-response,
848,color_on,True,1,blicket_images/ls.jpg,,ls,,blicket_images/ls.jpg,0.0-9.0,,ls,5034,light,"Which of these options shows the image from the last trial, that you just saw?",60030,pop_quiz,13,html-button-response,
848,color_on,True,1,,,"['lc', 'ls']",,,0.0-10.0,[0],"['lc', 'ls']",8082,light,,68127,rule_question,14,survey-multi-select,
832,color_on,False,0,,j,on,blicket_images/ds.jpg,,0.0-6.0,,f,4676,dark,blicket_images/ds.jpg,91037,blicket,10,image-keyboard-response,
832,color_on,False,0,,j,on,blicket_images/dc.jpg,,0.0-8.0,,f,4314,dark,blicket_images/dc.jpg,98469,blicket,12,image-keyboard-response,
832,color_on,True,1,blicket_images/dc.jpg,,dc,,blicket_images/dc.jpg,0.0-9.0,,dc,6548,dark,"Which of these options shows the image from the last trial, that you just saw?",105020,pop_quiz,13,html-button-response,
832,color_on,False,0,,,"['dc', 'ds']",,,0.0-10.0,[0],['ds'],10606,dark,,115634,rule_question,14,survey-multi-select,
795,color_on,True,1,,f,off,blicket_images/ls.jpg,,0.0-6.0,,f,7539,dark,blicket_images/ls.jpg,135277,blicket,10,image-keyboard-response,
795,color_on,True,1,,j,on,blicket_images/dc.jpg,,0.0-8.0,,j,3691,dark,blicket_images/dc.jpg,142023,blicket,12,image-keyboard-response,
795,color_on,True,1,blicket_images/dc.jpg,,dc,,blicket_images/dc.jpg,0.0-9.0,,dc,7933,dark,"Which of these options shows the image from the last trial, that you just saw?",149959,pop_quiz,13,html-button-response,
795,color_on,False,0,,,"['dc', 'ds']",,,0.0-10.0,[0],"['dc', 'lc']",10084,dark,,160047,rule_question,14,survey-multi-select,
844,color_on,False,0,,j,on,blicket_images/lc.jpg,,0.0-6.0,,f,8502,light,blicket_images/lc.jpg,154426,blicket,10,image-keyboard-response,
844,color_on,True,1,,j,on,blicket_images/ls.jpg,,0.0-8.0,,j,3332,light,blicket_images/ls.jpg,160610,blicket,12,image-keyboard-response,
844,color_on,True,1,blicket_images/ls.jpg,,ls,,blicket_images/ls.jpg,0.0-9.0,,ls,7369,light,"Which of these options shows the image from the last trial, that you just saw?",167982,pop_quiz,13,html-button-response,
844,color_on,False,0,,,"['lc', 'ls']",,,0.0-10.0,[0],['lc'],10266,light,,178257,rule_question,14,survey-multi-select,
765,color_on,True,1,,j,on,blicket_images/ls.jpg,,0.0-6.0,,j,2533,light,blicket_images/ls.jpg,81292,blicket,10,image-keyboard-response,
765,color_on,True,1,,j,on,blicket_images/lc.jpg,,0.0-8.0,,j,1133,light,blicket_images/lc.jpg,83452,blicket,12,image-keyboard-response,
765,color_on,True,1,blicket_images/lc.jpg,,lc,,blicket_images/lc.jpg,0.0-9.0,,lc,9431,light,"Which of these options shows the image from the last trial, that you just saw?",92884,pop_quiz,13,html-button-response,
765,color_on,True,1,,,"['lc', 'ls']",,,0.0-10.0,[0],"['lc', 'ls']",10862,light,,103751,rule_question,14,survey-multi-select,
737,color_on,True,1,,f,off,blicket_images/dc.jpg,,0.0-6.0,,f,5014,light,blicket_images/dc.jpg,108929,blicket,16,image-keyboard-response,
737,color_on,True,1,,j,on,blicket_images/lc.jpg,,0.0-8.0,,j,2963,light,blicket_images/lc.jpg,113348,blicket,18,image-keyboard-response,
737,color_on,True,1,blicket_images/lc.jpg,,lc,,blicket_images/lc.jpg,0.0-9.0,,lc,5150,light,"Which of these options shows the image from the last trial, that you just saw?",118502,pop_quiz,19,html-button-response,
737,color_on,False,0,,,"['lc', 'ls']",,,0.0-10.0,[0],"['dc', 'lc']",12007,light,,130518,rule_question,20,survey-multi-select,
807,color_on,True,1,,j,on,blicket_images/lc.jpg,,0.0-6.0,,j,2962,light,blicket_images/lc.jpg,88884,blicket,16,image-keyboard-response,
807,color_on,True,1,,j,on,blicket_images/ls.jpg,,0.0-8.0,,j,1927,light,blicket_images/ls.jpg,95792,blicket,18,image-keyboard-response,
807,color_on,True,1,blicket_images/ls.jpg,,ls,,blicket_images/ls.jpg,0.0-9.0,,ls,5022,light,"Which of these options shows the image from the last trial, that you just saw?",100816,pop_quiz,19,html-button-response,
807,color_on,False,0,,,"['lc', 'ls']",,,0.0-10.0,[0],['lc'],5065,light,,105886,rule_question,20,survey-multi-select,
819,color_on,False,0,,f,off,blicket_images/ds.jpg,,0.0-6.0,,j,4352,light,blicket_images/ds.jpg,495939,blicket,10,image-keyboard-response,
819,color_on,True,1,,j,on,blicket_images/lc.jpg,,0.0-8.0,,j,18600,light,blicket_images/lc.jpg,518697,blicket,12,image-keyboard-response,
819,color_on,True,1,blicket_images/lc.jpg,,lc,,blicket_images/lc.jpg,0.0-9.0,,lc,8061,light,"Which of these options shows the image from the last trial, that you just saw?",526763,pop_quiz,13,html-button-response,
819,color_on,False,0,,,"['lc', 'ls']",,,0.0-10.0,[0],"['dc', 'lc']",9847,light,,536622,rule_question,14,survey-multi-select,
757,color_on,False,0,,f,off,blicket_images/lc.jpg,,0.0-6.0,,j,4083,dark,blicket_images/lc.jpg,136416,blicket,10,image-keyboard-response,
757,color_on,True,1,,j,on,blicket_images/dc.jpg,,0.0-8.0,,j,1651,dark,blicket_images/dc.jpg,139925,blicket,12,image-keyboard-response,
757,color_on,True,1,blicket_images/dc.jpg,,dc,,blicket_images/dc.jpg,0.0-9.0,,dc,4704,dark,"Which of these options shows the image from the last trial, that you just saw?",144632,pop_quiz,13,html-button-response,
757,color_on,False,0,,,"['dc', 'ds']",,,0.0-10.0,[0],"['dc', 'lc']",7455,dark,,152094,rule_question,14,survey-multi-select,
803,color_on,True,1,,f,off,blicket_images/ds.jpg,,0.0-6.0,,f,2083,light,blicket_images/ds.jpg,43865,blicket,10,image-keyboard-response,
803,color_on,True,1,,j,on,blicket_images/lc.jpg,,0.0-8.0,,j,2422,light,blicket_images/lc.jpg,47947,blicket,12,image-keyboard-response,
803,color_on,False,0,blicket_images/lc.jpg,,lc,,blicket_images/ds.jpg,0.0-9.0,,ds,4377,light,"Which of these options shows the image from the last trial, that you just saw?",52326,pop_quiz,13,html-button-response,
803,color_on,False,0,,,"['lc', 'ls']",,,0.0-10.0,[0],['ds'],3331,light,,55663,rule_question,14,survey-multi-select,
779,color_on,False,0,,f,off,blicket_images/ds.jpg,,0.0-6.0,,j,1900,light,blicket_images/ds.jpg,59383,blicket,16,image-keyboard-response,
779,color_on,True,1,,j,on,blicket_images/ls.jpg,,0.0-8.0,,j,1271,light,blicket_images/ls.jpg,61631,blicket,18,image-keyboard-response,
779,color_on,True,1,blicket_images/ls.jpg,,ls,,blicket_images/ls.jpg,0.0-9.0,,ls,2797,light,"Which of these options shows the image from the last trial, that you just saw?",64429,pop_quiz,19,html-button-response,
779,color_on,False,0,,,"['lc', 'ls']",,,0.0-10.0,[0],['ls'],3631,light,,68062,rule_question,20,survey-multi-select,
729,color_on,False,0,,j,on,blicket_images/lc.jpg,,0.0-6.0,,f,7763,light,blicket_images/lc.jpg,198876,blicket,16,image-keyboard-response,
729,color_on,True,1,,j,on,blicket_images/ls.jpg,,0.0-8.0,,j,3820,light,blicket_images/ls.jpg,205337,blicket,18,image-keyboard-response,
729,color_on,True,1,blicket_images/ls.jpg,,ls,,blicket_images/ls.jpg,0.0-9.0,,ls,11213,light,"Which of these options shows the image from the last trial, that you just saw?",216552,pop_quiz,19,html-button-response,
729,color_on,False,0,,,"['lc', 'ls']",,,0.0-10.0,[0],"['dc', 'ds', 'lc', 'ls']",29504,light,,246064,rule_question,20,survey-multi-select,
783,color_on,False,0,,j,on,blicket_images/ds.jpg,,0.0-6.0,,f,2547,dark,blicket_images/ds.jpg,90501,blicket,16,image-keyboard-response,
783,color_on,False,0,,j,on,blicket_images/dc.jpg,,0.0-8.0,,f,2463,dark,blicket_images/dc.jpg,94469,blicket,18,image-keyboard-response,
783,color_on,True,1,blicket_images/dc.jpg,,dc,,blicket_images/dc.jpg,0.0-9.0,,dc,9431,dark,"Which of these options shows the image from the last trial, that you just saw?",103900,pop_quiz,19,html-button-response,
783,color_on,False,0,,,"['dc', 'ds']",,,0.0-10.0,[0],['dc'],6060,dark,,109964,rule_question,20,survey-multi-select,
836,color_on,False,0,,f,off,blicket_images/ls.jpg,,0.0-6.0,,j,5110,dark,blicket_images/ls.jpg,87772,blicket,16,image-keyboard-response,
836,color_on,True,1,,j,on,blicket_images/ds.jpg,,0.0-8.0,,j,1409,dark,blicket_images/ds.jpg,90216,blicket,18,image-keyboard-response,
836,color_on,False,0,blicket_images/ds.jpg,,ds,,blicket_images/dc.jpg,0.0-9.0,,dc,4775,dark,"Which of these options shows the image from the last trial, that you just saw?",94993,pop_quiz,19,html-button-response,
836,color_on,False,0,,,"['dc', 'ds']",,,0.0-10.0,[0],"['dc', 'lc']",6228,dark,,101228,rule_question,20,survey-multi-select,
823,color_on,False,0,,f,off,blicket_images/dc.jpg,,0.0-6.0,,j,2448,light,blicket_images/dc.jpg,84219,blicket,10,image-keyboard-response,
823,color_on,True,1,,j,on,blicket_images/lc.jpg,,0.0-8.0,,j,1298,light,blicket_images/lc.jpg,88430,blicket,12,image-keyboard-response,
823,color_on,True,1,blicket_images/lc.jpg,,lc,,blicket_images/lc.jpg,0.0-9.0,,lc,3314,light,"Which of these options shows the image from the last trial, that you just saw?",91746,pop_quiz,13,html-button-response,
823,color_on,False,0,,,"['lc', 'ls']",,,0.0-10.0,[0],['lc'],3411,light,,95159,rule_question,14,survey-multi-select,
774,color_on,False,0,,f,off,blicket_images/ls.jpg,,0.0-6.0,,j,2369,dark,blicket_images/ls.jpg,178403,blicket,10,image-keyboard-response,
774,color_on,True,1,,j,on,blicket_images/ds.jpg,,0.0-8.0,,j,2141,dark,blicket_images/ds.jpg,190012,blicket,12,image-keyboard-response,
774,color_on,True,1,blicket_images/ds.jpg,,ds,,blicket_images/ds.jpg,0.0-9.0,,ds,4642,dark,"Which of these options shows the image from the last trial, that you just saw?",194661,pop_quiz,13,html-button-response,
774,color_on,False,0,,,"['dc', 'ds']",,,0.0-10.0,[0],['ds'],8310,dark,,202993,rule_question,14,survey-multi-select,
733,color_on,False,0,,f,off,blicket_images/ds.jpg,,0.0-6.0,,j,2653,light,blicket_images/ds.jpg,75774,blicket,10,image-keyboard-response,
733,color_on,True,1,,j,on,blicket_images/ls.jpg,,0.0-8.0,,j,1415,light,blicket_images/ls.jpg,81679,blicket,12,image-keyboard-response,
733,color_on,True,1,blicket_images/ls.jpg,,ls,,blicket_images/ls.jpg,0.0-9.0,,ls,6754,light,"Which of these options shows the image from the last trial, that you just saw?",88435,pop_quiz,13,html-button-response,
733,color_on,False,0,,,"['lc', 'ls']",,,0.0-10.0,[0],"['dc', 'lc']",15325,light,,103767,rule_question,14,survey-multi-select,
753,color_on,False,0,,f,off,blicket_images/dc.jpg,,0.0-6.0,,j,2576,light,blicket_images/dc.jpg,54298,blicket,10,image-keyboard-response,
753,color_on,True,1,,j,on,blicket_images/ls.jpg,,0.0-8.0,,j,2087,light,blicket_images/ls.jpg,58488,blicket,12,image-keyboard-response,
753,color_on,False,0,blicket_images/ls.jpg,,ls,,blicket_images/lc.jpg,0.0-9.0,,lc,4423,light,"Which of these options shows the image from the last trial, that you just saw?",62913,pop_quiz,13,html-button-response,
753,color_on,True,1,,,"['lc', 'ls']",,,0.0-10.0,[0],"['lc', 'ls']",5759,light,,68676,rule_question,14,survey-multi-select,
761,color_on,False,0,,j,on,blicket_images/dc.jpg,,0.0-6.0,,f,4046,dark,blicket_images/dc.jpg,100287,blicket,16,image-keyboard-response,
761,color_on,False,0,,j,on,blicket_images/ds.jpg,,0.0-8.0,,f,1538,dark,blicket_images/ds.jpg,102733,blicket,18,image-keyboard-response,
761,color_on,False,0,blicket_images/ds.jpg,,ds,,blicket_images/dc.jpg,0.0-9.0,,dc,3863,dark,"Which of these options shows the image from the last trial, that you just saw?",106596,pop_quiz,19,html-button-response,
761,color_on,False,0,,,"['dc', 'ds']",,,0.0-10.0,[0],['dc'],2687,dark,,109286,rule_question,20,survey-multi-select,
769,color_on,False,0,,j,on,blicket_images/lc.jpg,,0.0-6.0,,f,1977,light,blicket_images/lc.jpg,65877,blicket,16,image-keyboard-response,
769,color_on,False,0,,j,on,blicket_images/ls.jpg,,0.0-8.0,,f,1215,light,blicket_images/ls.jpg,72251,blicket,18,image-keyboard-response,
769,color_on,False,0,blicket_images/ls.jpg,,ls,,blicket_images/lc.jpg,0.0-9.0,,lc,2715,light,"Which of these options shows the image from the last trial, that you just saw?",74968,pop_quiz,19,html-button-response,
769,color_on,False,0,,,"['lc', 'ls']",,,0.0-10.0,[0],['dc'],5491,light,,80468,rule_question,20,survey-multi-select,
828,color_on,False,0,,f,off,blicket_images/lc.jpg,,0.0-6.0,,j,6363,dark,blicket_images/lc.jpg,80213,blicket,10,image-keyboard-response,
828,color_on,True,1,,j,on,blicket_images/ds.jpg,,0.0-8.0,,j,2783,dark,blicket_images/ds.jpg,84300,blicket,12,image-keyboard-response,
828,color_on,True,1,blicket_images/ds.jpg,,ds,,blicket_images/ds.jpg,0.0-9.0,,ds,3229,dark,"Which of these options shows the image from the last trial, that you just saw?",87533,pop_quiz,13,html-button-response,
828,color_on,True,1,,,"['dc', 'ds']",,,0.0-10.0,[0],"['dc', 'ds']",5039,dark,,92587,rule_question,14,survey-multi-select,
827,color_on,False,0,,f,off,blicket_images/ls.jpg,,0.0-6.0,,j,2086,dark,blicket_images/ls.jpg,57224,blicket,16,image-keyboard-response,
827,color_on,True,1,,j,on,blicket_images/ds.jpg,,0.0-8.0,,j,1320,dark,blicket_images/ds.jpg,61488,blicket,18,image-keyboard-response,
827,color_on,True,1,blicket_images/ds.jpg,,ds,,blicket_images/ds.jpg,0.0-9.0,,ds,4032,dark,"Which of these options shows the image from the last trial, that you just saw?",65520,pop_quiz,19,html-button-response,
827,color_on,False,0,,,"['dc', 'ds']",,,0.0-10.0,[0],['ds'],4294,dark,,69817,rule_question,20,survey-multi-select,
772,color_on,False,0,,f,off,blicket_images/dc.jpg,,0.0-6.0,,j,5166,light,blicket_images/dc.jpg,83085,blicket,10,image-keyboard-response,
772,color_on,True,1,,j,on,blicket_images/lc.jpg,,0.0-8.0,,j,1191,light,blicket_images/lc.jpg,87181,blicket,12,image-keyboard-response,
772,color_on,True,1,blicket_images/lc.jpg,,lc,,blicket_images/lc.jpg,0.0-9.0,,lc,6542,light,"Which of these options shows the image from the last trial, that you just saw?",93724,pop_quiz,13,html-button-response,
772,color_on,False,0,,,"['lc', 'ls']",,,0.0-10.0,[0],['lc'],8858,light,,102585,rule_question,14,survey-multi-select,
791,color_on,False,0,,f,off,blicket_images/lc.jpg,,0.0-6.0,,j,5206,dark,blicket_images/lc.jpg,66199,blicket,10,image-keyboard-response,
791,color_on,True,1,,j,on,blicket_images/dc.jpg,,0.0-8.0,,j,1591,dark,blicket_images/dc.jpg,69015,blicket,12,image-keyboard-response,
791,color_on,True,1,blicket_images/dc.jpg,,dc,,blicket_images/dc.jpg,0.0-9.0,,dc,8406,dark,"Which of these options shows the image from the last trial, that you just saw?",77422,pop_quiz,13,html-button-response,
791,color_on,False,0,,,"['dc', 'ds']",,,0.0-10.0,[0],['ds'],5012,dark,,82436,rule_question,14,survey-multi-select,
781,color_off,False,0,,j,on,blicket_images/dc.jpg,,0.0-6.0,,f,3209,dark,blicket_images/dc.jpg,115685,blicket,10,image-keyboard-response,
781,color_off,True,1,,f,off,blicket_images/ls.jpg,,0.0-8.0,,f,2754,dark,blicket_images/ls.jpg,122148,blicket,12,image-keyboard-response,
781,color_off,False,0,blicket_images/ls.jpg,,ls,,blicket_images/ds.jpg,0.0-9.0,,ds,6187,dark,"Which of these options shows the image from the last trial, that you just saw?",128341,pop_quiz,13,html-button-response,
781,color_off,False,0,,,"['dc', 'ds']",,,0.0-10.0,[0],['dc'],11335,dark,,139690,rule_question,14,survey-multi-select,
843,color_off,False,0,,j,on,blicket_images/ds.jpg,,0.0-6.0,,f,3384,dark,blicket_images/ds.jpg,73913,blicket,10,image-keyboard-response,
843,color_off,True,1,,f,off,blicket_images/lc.jpg,,0.0-8.0,,f,1539,dark,blicket_images/lc.jpg,76649,blicket,12,image-keyboard-response,
843,color_off,True,1,blicket_images/lc.jpg,,lc,,blicket_images/lc.jpg,0.0-9.0,,lc,3282,dark,"Which of these options shows the image from the last trial, that you just saw?",79933,pop_quiz,13,html-button-response,
843,color_off,False,0,,,"['dc', 'ds']",,,0.0-10.0,[0],['lc'],3795,dark,,83734,rule_question,14,survey-multi-select,
773,color_off,True,1,,j,on,blicket_images/ds.jpg,,0.0-6.0,,j,3603,dark,blicket_images/ds.jpg,79941,blicket,10,image-keyboard-response,
773,color_off,True,1,,f,off,blicket_images/ls.jpg,,0.0-8.0,,f,1419,dark,blicket_images/ls.jpg,82949,blicket,12,image-keyboard-response,
773,color_off,True,1,blicket_images/ls.jpg,,ls,,blicket_images/ls.jpg,0.0-9.0,,ls,8027,dark,"Which of these options shows the image from the last trial, that you just saw?",90978,pop_quiz,13,html-button-response,
773,color_off,True,1,,,"['dc', 'ds']",,,0.0-10.0,[0],"['dc', 'ds']",7476,dark,,98458,rule_question,14,survey-multi-select,
740,color_off,True,1,,j,on,blicket_images/ls.jpg,,0.0-6.0,,j,5683,light,blicket_images/ls.jpg,188254,blicket,22,image-keyboard-response,
740,color_off,True,1,,f,off,blicket_images/dc.jpg,,0.0-8.0,,f,2959,light,blicket_images/dc.jpg,192955,blicket,24,image-keyboard-response,
740,color_off,False,0,blicket_images/dc.jpg,,dc,,blicket_images/ls.jpg,0.0-9.0,,ls,6352,light,"Which of these options shows the image from the last trial, that you just saw?",199310,pop_quiz,25,html-button-response,
740,color_off,False,0,,,"['lc', 'ls']",,,0.0-10.0,[0],"['dc', 'ds', 'lc', 'ls']",14755,light,,214074,rule_question,26,survey-multi-select,
786,color_off,False,0,,j,on,blicket_images/lc.jpg,,0.0-6.0,,f,3042,light,blicket_images/lc.jpg,80133,blicket,16,image-keyboard-response,
786,color_off,True,1,,f,off,blicket_images/dc.jpg,,0.0-8.0,,f,1847,light,blicket_images/dc.jpg,83551,blicket,18,image-keyboard-response,
786,color_off,False,0,blicket_images/dc.jpg,,dc,,blicket_images/lc.jpg,0.0-9.0,,lc,4000,light,"Which of these options shows the image from the last trial, that you just saw?",87551,pop_quiz,19,html-button-response,
786,color_off,False,0,,,"['lc', 'ls']",,,0.0-10.0,[0],['lc'],4603,light,,92157,rule_question,20,survey-multi-select,
767,color_off,False,0,,f,off,blicket_images/ds.jpg,,0.0-6.0,,j,2274,light,blicket_images/ds.jpg,86319,blicket,16,image-keyboard-response,
767,color_off,True,1,,f,off,blicket_images/dc.jpg,,0.0-8.0,,f,2635,light,blicket_images/dc.jpg,95980,blicket,18,image-keyboard-response,
767,color_off,True,1,blicket_images/dc.jpg,,dc,,blicket_images/dc.jpg,0.0-9.0,,dc,4173,light,"Which of these options shows the image from the last trial, that you just saw?",100156,pop_quiz,19,html-button-response,
767,color_off,False,0,,,"['lc', 'ls']",,,0.0-10.0,[0],['ls'],8134,light,,108294,rule_question,20,survey-multi-select,
798,color_off,True,1,,f,off,blicket_images/lc.jpg,,0.0-6.0,,f,5637,dark,blicket_images/lc.jpg,128290,blicket,10,image-keyboard-response,
798,color_off,False,0,,f,off,blicket_images/ls.jpg,,0.0-8.0,,j,8409,dark,blicket_images/ls.jpg,140209,blicket,12,image-keyboard-response,
798,color_off,True,1,blicket_images/ls.jpg,,ls,,blicket_images/ls.jpg,0.0-9.0,,ls,9554,dark,"Which of these options shows the image from the last trial, that you just saw?",149765,pop_quiz,13,html-button-response,
798,color_off,False,0,,,"['dc', 'ds']",,,0.0-10.0,[0],"['ds', 'ls']",17038,dark,,166813,rule_question,14,survey-multi-select,
814,color_off,True,1,,f,off,blicket_images/dc.jpg,,0.0-6.0,,f,5186,light,blicket_images/dc.jpg,89300,blicket,16,image-keyboard-response,
814,color_off,False,0,,f,off,blicket_images/ds.jpg,,0.0-8.0,,j,1775,light,blicket_images/ds.jpg,93350,blicket,18,image-keyboard-response,
814,color_off,False,0,blicket_images/ds.jpg,,ds,,blicket_images/dc.jpg,0.0-9.0,,dc,3623,light,"Which of these options shows the image from the last trial, that you just saw?",96976,pop_quiz,19,html-button-response,
814,color_off,False,0,,,"['lc', 'ls']",,,0.0-10.0,[0],['dc'],3257,light,,100236,rule_question,20,survey-multi-select,
810,color_off,False,0,,f,off,blicket_images/dc.jpg,,0.0-6.0,,j,2055,light,blicket_images/dc.jpg,58138,blicket,16,image-keyboard-response,
810,color_off,False,0,,f,off,blicket_images/ds.jpg,,0.0-8.0,,j,1258,light,blicket_images/ds.jpg,61199,blicket,18,image-keyboard-response,
810,color_off,False,0,blicket_images/ds.jpg,,ds,,blicket_images/dc.jpg,0.0-9.0,,dc,2719,light,"Which of these options shows the image from the last trial, that you just saw?",63920,pop_quiz,19,html-button-response,
810,color_off,False,0,,,"['lc', 'ls']",,,0.0-10.0,[0],['dc'],4390,light,,68321,rule_question,20,survey-multi-select,
839,color_off,False,0,,f,off,blicket_images/dc.jpg,,0.0-6.0,,j,10545,light,blicket_images/dc.jpg,207907,blicket,10,image-keyboard-response,
839,color_off,False,0,,f,off,blicket_images/ds.jpg,,0.0-8.0,,j,6335,light,blicket_images/ds.jpg,265251,blicket,12,image-keyboard-response,
839,color_off,False,0,blicket_images/ds.jpg,,ds,,blicket_images/dc.jpg,0.0-9.0,,dc,8518,light,"Which of these options shows the image from the last trial, that you just saw?",273771,pop_quiz,13,html-button-response,
839,color_off,False,0,,,"['lc', 'ls']",,,0.0-10.0,[0],['lc'],8822,light,,282596,rule_question,14,survey-multi-select,
744,color_off,False,0,,j,on,blicket_images/lc.jpg,,0.0-6.0,,f,2985,light,blicket_images/lc.jpg,66864,blicket,10,image-keyboard-response,
744,color_off,True,1,,f,off,blicket_images/ds.jpg,,0.0-8.0,,f,2705,light,blicket_images/ds.jpg,73845,blicket,12,image-keyboard-response,
744,color_off,True,1,blicket_images/ds.jpg,,ds,,blicket_images/ds.jpg,0.0-9.0,,ds,2593,light,"Which of these options shows the image from the last trial, that you just saw?",76439,pop_quiz,13,html-button-response,
744,color_off,False,0,,,"['lc', 'ls']",,,0.0-10.0,[0],"['dc', 'lc', 'ls']",13303,light,,89746,rule_question,14,survey-multi-select,
731,color_off,True,1,,j,on,blicket_images/ds.jpg,,0.0-6.0,,j,4259,dark,blicket_images/ds.jpg,104218,blicket,10,image-keyboard-response,
731,color_off,False,0,,f,off,blicket_images/lc.jpg,,0.0-8.0,,j,2126,dark,blicket_images/lc.jpg,107544,blicket,12,image-keyboard-response,
731,color_off,True,1,blicket_images/lc.jpg,,lc,,blicket_images/lc.jpg,0.0-9.0,,lc,8120,dark,"Which of these options shows the image from the last trial, that you just saw?",115667,pop_quiz,13,html-button-response,
731,color_off,False,0,,,"['dc', 'ds']",,,0.0-10.0,[0],"['ds', 'ls']",9542,dark,,125219,rule_question,14,survey-multi-select,
759,color_off,True,1,,f,off,blicket_images/dc.jpg,,0.0-6.0,,f,3775,light,blicket_images/dc.jpg,95906,blicket,10,image-keyboard-response,
759,color_off,False,0,,f,off,blicket_images/ds.jpg,,0.0-8.0,,j,2239,light,blicket_images/ds.jpg,102653,blicket,12,image-keyboard-response,
759,color_off,True,1,blicket_images/ds.jpg,,ds,,blicket_images/ds.jpg,0.0-9.0,,ds,2957,light,"Which of these options shows the image from the last trial, that you just saw?",105613,pop_quiz,13,html-button-response,
759,color_off,False,0,,,"['lc', 'ls']",,,0.0-10.0,[0],"['ds', 'lc']",9731,light,,115355,rule_question,14,survey-multi-select,
820,color_off,False,0,,f,off,blicket_images/lc.jpg,,0.0-6.0,,j,2001,dark,blicket_images/lc.jpg,101462,blicket,16,image-keyboard-response,
820,color_off,False,0,,f,off,blicket_images/ls.jpg,,0.0-8.0,,j,1286,dark,blicket_images/ls.jpg,104117,blicket,18,image-keyboard-response,
820,color_off,False,0,blicket_images/ls.jpg,,ls,,blicket_images/lc.jpg,0.0-9.0,,lc,5066,dark,"Which of these options shows the image from the last trial, that you just saw?",109188,pop_quiz,19,html-button-response,
820,color_off,False,0,,,"['dc', 'ds']",,,0.0-10.0,[0],['ls'],6859,dark,,116055,rule_question,20,survey-multi-select,
826,color_off,True,1,,j,on,blicket_images/ds.jpg,,0.0-6.0,,j,20892,dark,blicket_images/ds.jpg,163043,blicket,10,image-keyboard-response,
826,color_off,True,1,,f,off,blicket_images/ls.jpg,,0.0-8.0,,f,5813,dark,blicket_images/ls.jpg,173775,blicket,12,image-keyboard-response,
826,color_off,True,1,blicket_images/ls.jpg,,ls,,blicket_images/ls.jpg,0.0-9.0,,ls,7796,dark,"Which of these options shows the image from the last trial, that you just saw?",181574,pop_quiz,13,html-button-response,
826,color_off,False,0,,,"['dc', 'ds']",,,0.0-10.0,[0],['ds'],9260,dark,,190839,rule_question,14,survey-multi-select,
777,color_off,True,1,,f,off,blicket_images/ds.jpg,,0.0-6.0,,f,2630,light,blicket_images/ds.jpg,84898,blicket,10,image-keyboard-response,
777,color_off,True,1,,f,off,blicket_images/dc.jpg,,0.0-8.0,,f,1594,light,blicket_images/dc.jpg,90791,blicket,12,image-keyboard-response,
777,color_off,True,1,blicket_images/dc.jpg,,dc,,blicket_images/dc.jpg,0.0-9.0,,dc,3505,light,"Which of these options shows the image from the last trial, that you just saw?",94298,pop_quiz,13,html-button-response,
777,color_off,False,0,,,"['lc', 'ls']",,,0.0-10.0,[0],"['dc', 'ds', 'lc', 'ls']",14870,light,,109176,rule_question,14,survey-multi-select,
818,color_off,True,1,,j,on,blicket_images/dc.jpg,,0.0-6.0,,j,6203,dark,blicket_images/dc.jpg,137827,blicket,16,image-keyboard-response,
818,color_off,True,1,,f,off,blicket_images/lc.jpg,,0.0-8.0,,f,2367,dark,blicket_images/lc.jpg,141308,blicket,18,image-keyboard-response,
818,color_off,True,1,blicket_images/lc.jpg,,lc,,blicket_images/lc.jpg,0.0-9.0,,lc,4465,dark,"Which of these options shows the image from the last trial, that you just saw?",145777,pop_quiz,19,html-button-response,
818,color_off,False,0,,,"['dc', 'ds']",,,0.0-10.0,[0],"['dc', 'lc']",7628,dark,,153425,rule_question,20,survey-multi-select,
802,color_off,True,1,,f,off,blicket_images/ls.jpg,,0.0-6.0,,f,2485,dark,blicket_images/ls.jpg,184493,blicket,10,image-keyboard-response,
802,color_off,False,0,,f,off,blicket_images/lc.jpg,,0.0-8.0,,j,1730,dark,blicket_images/lc.jpg,188452,blicket,12,image-keyboard-response,
802,color_off,True,1,blicket_images/lc.jpg,,lc,,blicket_images/lc.jpg,0.0-9.0,,lc,2329,dark,"Which of these options shows the image from the last trial, that you just saw?",190784,pop_quiz,13,html-button-response,
802,color_off,False,0,,,"['dc', 'ds']",,,0.0-10.0,[0],['ls'],5327,dark,,196126,rule_question,14,survey-multi-select,
850,color_off,True,1,,j,on,blicket_images/ls.jpg,,0.0-6.0,,j,3589,light,blicket_images/ls.jpg,153207,blicket,10,image-keyboard-response,
850,color_off,True,1,,f,off,blicket_images/dc.jpg,,0.0-8.0,,f,4827,light,blicket_images/dc.jpg,160484,blicket,12,image-keyboard-response,
850,color_off,False,0,blicket_images/dc.jpg,,dc,,blicket_images/ds.jpg,0.0-9.0,,ds,7732,light,"Which of these options shows the image from the last trial, that you just saw?",168219,pop_quiz,13,html-button-response,
850,color_off,False,0,,,"['lc', 'ls']",,,0.0-10.0,[0],['dc'],11622,light,,179851,rule_question,14,survey-multi-select,
736,color_off,False,0,,j,on,blicket_images/ls.jpg,,0.0-6.0,,f,5681,light,blicket_images/ls.jpg,121071,blicket,10,image-keyboard-response,
736,color_off,True,1,,f,off,blicket_images/ds.jpg,,0.0-8.0,,f,1380,light,blicket_images/ds.jpg,124546,blicket,12,image-keyboard-response,
736,color_off,True,1,blicket_images/ds.jpg,,ds,,blicket_images/ds.jpg,0.0-9.0,,ds,4472,light,"Which of these options shows the image from the last trial, that you just saw?",129021,pop_quiz,13,html-button-response,
736,color_off,False,0,,,"['lc', 'ls']",,,0.0-10.0,[0],['ls'],4291,light,,133318,rule_question,14,survey-multi-select,
835,color_off,False,0,,f,off,blicket_images/lc.jpg,,0.0-6.0,,j,3054,dark,blicket_images/lc.jpg,66507,blicket,10,image-keyboard-response,
835,color_off,True,1,,f,off,blicket_images/ls.jpg,,0.0-8.0,,f,2860,dark,blicket_images/ls.jpg,70531,blicket,12,image-keyboard-response,
835,color_off,True,1,blicket_images/ls.jpg,,ls,,blicket_images/ls.jpg,0.0-9.0,,ls,4881,dark,"Which of these options shows the image from the last trial, that you just saw?",75413,pop_quiz,13,html-button-response,
835,color_off,False,0,,,"['dc', 'ds']",,,0.0-10.0,[0],"['ds', 'ls']",6347,dark,,81765,rule_question,14,survey-multi-select,
727,color_off,True,1,,j,on,blicket_images/lc.jpg,,0.0-6.0,,j,5739,light,blicket_images/lc.jpg,816800,blicket,10,image-keyboard-response,
727,color_off,True,1,,f,off,blicket_images/dc.jpg,,0.0-8.0,,f,2146,light,blicket_images/dc.jpg,824036,blicket,12,image-keyboard-response,
727,color_off,False,0,blicket_images/dc.jpg,,dc,,blicket_images/lc.jpg,0.0-9.0,,lc,5432,light,"Which of these options shows the image from the last trial, that you just saw?",829474,pop_quiz,13,html-button-response,
727,color_off,False,0,,,"['lc', 'ls']",,,0.0-10.0,[0],['lc'],3407,light,,832889,rule_question,14,survey-multi-select,
792,color_off,True,1,,f,off,blicket_images/dc.jpg,,0.0-6.0,,f,2303,light,blicket_images/dc.jpg,102419,blicket,16,image-keyboard-response,
792,color_off,False,0,,f,off,blicket_images/ds.jpg,,0.0-8.0,,j,2841,light,blicket_images/ds.jpg,107172,blicket,18,image-keyboard-response,
792,color_off,True,1,blicket_images/ds.jpg,,ds,,blicket_images/ds.jpg,0.0-9.0,,ds,5309,light,"Which of these options shows the image from the last trial, that you just saw?",112482,pop_quiz,19,html-button-response,
792,color_off,False,0,,,"['lc', 'ls']",,,0.0-10.0,[0],"['ds', 'ls']",5180,light,,117667,rule_question,20,survey-multi-select,
778,color_off,True,1,,j,on,blicket_images/ds.jpg,,0.0-6.0,,j,2128,dark,blicket_images/ds.jpg,71286,blicket,10,image-keyboard-response,
778,color_off,False,0,,f,off,blicket_images/lc.jpg,,0.0-8.0,,j,1245,dark,blicket_images/lc.jpg,73689,blicket,12,image-keyboard-response,
778,color_off,True,1,blicket_images/lc.jpg,,lc,,blicket_images/lc.jpg,0.0-9.0,,lc,5987,dark,"Which of these options shows the image from the last trial, that you just saw?",79678,pop_quiz,13,html-button-response,
778,color_off,False,0,,,"['dc', 'ds']",,,0.0-10.0,[0],['dc'],4548,dark,,84232,rule_question,14,survey-multi-select,
764,color_off,True,1,,f,off,blicket_images/ds.jpg,,0.0-6.0,,f,9528,light,blicket_images/ds.jpg,408501,blicket,10,image-keyboard-response,
764,color_off,False,0,,f,off,blicket_images/dc.jpg,,0.0-8.0,,j,1281,light,blicket_images/dc.jpg,411890,blicket,12,image-keyboard-response,
764,color_off,False,0,blicket_images/dc.jpg,,dc,,blicket_images/ds.jpg,0.0-9.0,,ds,7316,light,"Which of these options shows the image from the last trial, that you just saw?",419209,pop_quiz,13,html-button-response,
764,color_off,False,0,,,"['lc', 'ls']",,,0.0-10.0,[0],['lc'],4865,light,,424080,rule_question,14,survey-multi-select,
790,color_off,True,1,,j,on,blicket_images/dc.jpg,,0.0-6.0,,j,5584,dark,blicket_images/dc.jpg,134262,blicket,10,image-keyboard-response,
790,color_off,True,1,,f,off,blicket_images/ls.jpg,,0.0-8.0,,f,1638,dark,blicket_images/ls.jpg,138867,blicket,12,image-keyboard-response,
790,color_off,False,0,blicket_images/ls.jpg,,ls,,blicket_images/lc.jpg,0.0-9.0,,lc,7970,dark,"Which of these options shows the image from the last trial, that you just saw?",146841,pop_quiz,13,html-button-response,
790,color_off,False,0,,,"['dc', 'ds']",,,0.0-10.0,[0],['dc'],11086,dark,,157941,rule_question,14,survey-multi-select,
755,color_off,True,1,,j,on,blicket_images/dc.jpg,,0.0-6.0,,j,5024,dark,blicket_images/dc.jpg,79557,blicket,10,image-keyboard-response,
755,color_off,True,1,,f,off,blicket_images/ls.jpg,,0.0-8.0,,f,3759,dark,blicket_images/ls.jpg,84984,blicket,12,image-keyboard-response,
755,color_off,False,0,blicket_images/ls.jpg,,ls,,blicket_images/dc.jpg,0.0-9.0,,dc,6592,dark,"Which of these options shows the image from the last trial, that you just saw?",91578,pop_quiz,13,html-button-response,
755,color_off,False,0,,,"['dc', 'ds']",,,0.0-10.0,[0],['dc'],3633,dark,,95221,rule_question,14,survey-multi-select,
752,color_off,True,1,,j,on,blicket_images/dc.jpg,,0.0-6.0,,j,8554,dark,blicket_images/dc.jpg,122033,blicket,10,image-keyboard-response,
752,color_off,False,0,,f,off,blicket_images/lc.jpg,,0.0-8.0,,j,2400,dark,blicket_images/lc.jpg,129217,blicket,12,image-keyboard-response,
752,color_off,False,0,blicket_images/lc.jpg,,lc,,blicket_images/dc.jpg,0.0-9.0,,dc,10765,dark,"Which of these options shows the image from the last trial, that you just saw?",139986,pop_quiz,13,html-button-response,
752,color_off,False,0,,,"['dc', 'ds']",,,0.0-10.0,[0],"['dc', 'lc']",12352,dark,,152343,rule_question,14,survey-multi-select,
831,color_off,True,1,,f,off,blicket_images/ls.jpg,,0.0-6.0,,f,4011,dark,blicket_images/ls.jpg,62427,blicket,10,image-keyboard-response,
831,color_off,False,0,,f,off,blicket_images/lc.jpg,,0.0-8.0,,j,2478,dark,blicket_images/lc.jpg,66625,blicket,12,image-keyboard-response,
831,color_off,True,1,blicket_images/lc.jpg,,lc,,blicket_images/lc.jpg,0.0-9.0,,lc,2623,dark,"Which of these options shows the image from the last trial, that you just saw?",69250,pop_quiz,13,html-button-response,
831,color_off,False,0,,,"['dc', 'ds']",,,0.0-10.0,[0],['ls'],4387,dark,,73641,rule_question,14,survey-multi-select,
847,color_off,False,0,,f,off,blicket_images/dc.jpg,,0.0-6.0,,j,2471,light,blicket_images/dc.jpg,91940,blicket,10,image-keyboard-response,
847,color_off,False,0,,f,off,blicket_images/ds.jpg,,0.0-8.0,,j,4479,light,blicket_images/ds.jpg,97545,blicket,12,image-keyboard-response,
847,color_off,True,1,blicket_images/ds.jpg,,ds,,blicket_images/ds.jpg,0.0-9.0,,ds,9454,light,"Which of these options shows the image from the last trial, that you just saw?",107008,pop_quiz,13,html-button-response,
847,color_off,False,0,,,"['lc', 'ls']",,,0.0-10.0,[0],['ds'],4093,light,,111108,rule_question,14,survey-multi-select,
838,shape_off,True,1,,j,on,blicket_images/dc.jpg,,0.0-6.0,,j,3450,cylinder,blicket_images/dc.jpg,113474,blicket,16,image-keyboard-response,
838,shape_off,True,1,,f,off,blicket_images/ls.jpg,,0.0-8.0,,f,4622,cylinder,blicket_images/ls.jpg,119270,blicket,18,image-keyboard-response,
838,shape_off,False,0,blicket_images/ls.jpg,,ls,,blicket_images/lc.jpg,0.0-9.0,,lc,9977,cylinder,"Which of these options shows the image from the last trial, that you just saw?",129251,pop_quiz,19,html-button-response,
838,shape_off,False,0,,,"['dc', 'lc']",,,0.0-10.0,[0],"['ds', 'ls']",8646,cylinder,,137923,rule_question,20,survey-multi-select,
756,shape_off,True,1,,j,on,blicket_images/dc.jpg,,0.0-6.0,,j,2025,cylinder,blicket_images/dc.jpg,72962,blicket,22,image-keyboard-response,
756,shape_off,True,1,,f,off,blicket_images/ls.jpg,,0.0-8.0,,f,943,cylinder,blicket_images/ls.jpg,74672,blicket,24,image-keyboard-response,
756,shape_off,False,0,blicket_images/ls.jpg,,ls,,blicket_images/dc.jpg,0.0-9.0,,dc,4519,cylinder,"Which of these options shows the image from the last trial, that you just saw?",79193,pop_quiz,25,html-button-response,
756,shape_off,False,0,,,"['dc', 'lc']",,,0.0-10.0,[0],['dc'],3868,cylinder,,83066,rule_question,26,survey-multi-select,
776,shape_off,False,0,,f,off,blicket_images/lc.jpg,,0.0-6.0,,j,3865,cube,blicket_images/lc.jpg,173740,blicket,10,image-keyboard-response,
776,shape_off,True,1,,f,off,blicket_images/dc.jpg,,0.0-8.0,,f,979,cube,blicket_images/dc.jpg,175940,blicket,12,image-keyboard-response,
776,shape_off,False,0,blicket_images/dc.jpg,,dc,,blicket_images/ds.jpg,0.0-9.0,,ds,5105,cube,"Which of these options shows the image from the last trial, that you just saw?",181046,pop_quiz,13,html-button-response,
776,shape_off,False,0,,,"['ds', 'ls']",,,0.0-10.0,[0],"['dc', 'ds']",5717,cube,,186766,rule_question,14,survey-multi-select,
785,shape_off,True,1,,j,on,blicket_images/ds.jpg,,0.0-6.0,,j,5145,cube,blicket_images/ds.jpg,138546,blicket,16,image-keyboard-response,
785,shape_off,True,1,,f,off,blicket_images/dc.jpg,,0.0-8.0,,f,1255,cube,blicket_images/dc.jpg,141175,blicket,18,image-keyboard-response,
785,shape_off,True,1,blicket_images/dc.jpg,,dc,,blicket_images/dc.jpg,0.0-9.0,,dc,4327,cube,"Which of these options shows the image from the last trial, that you just saw?",145503,pop_quiz,19,html-button-response,
785,shape_off,True,1,,,"['ds', 'ls']",,,0.0-10.0,[0],"['ds', 'ls']",6981,cube,,152488,rule_question,20,survey-multi-select,
825,shape_off,True,1,,j,on,blicket_images/ls.jpg,,0.0-6.0,,j,2149,cube,blicket_images/ls.jpg,95655,blicket,10,image-keyboard-response,
825,shape_off,True,1,,f,off,blicket_images/lc.jpg,,0.0-8.0,,f,1471,cube,blicket_images/lc.jpg,99547,blicket,12,image-keyboard-response,
825,shape_off,True,1,blicket_images/lc.jpg,,lc,,blicket_images/lc.jpg,0.0-9.0,,lc,3123,cube,"Which of these options shows the image from the last trial, that you just saw?",102673,pop_quiz,13,html-button-response,
825,shape_off,True,1,,,"['ds', 'ls']",,,0.0-10.0,[0],"['ds', 'ls']",6628,cube,,109315,rule_question,14,survey-multi-select,
739,shape_off,True,1,,j,on,blicket_images/ds.jpg,,0.0-6.0,,j,2732,cube,blicket_images/ds.jpg,138005,blicket,10,image-keyboard-response,
739,shape_off,True,1,,f,off,blicket_images/dc.jpg,,0.0-8.0,,f,2306,cube,blicket_images/dc.jpg,143254,blicket,12,image-keyboard-response,
739,shape_off,True,1,blicket_images/dc.jpg,,dc,,blicket_images/dc.jpg,0.0-9.0,,dc,7932,cube,"Which of these options shows the image from the last trial, that you just saw?",151188,pop_quiz,13,html-button-response,
739,shape_off,False,0,,,"['ds', 'ls']",,,0.0-10.0,[0],['ds'],9738,cube,,160930,rule_question,14,survey-multi-select,
842,shape_off,True,1,,j,on,blicket_images/ds.jpg,,0.0-6.0,,j,1051,cube,blicket_images/ds.jpg,68622,blicket,16,image-keyboard-response,
842,shape_off,True,1,,f,off,blicket_images/lc.jpg,,0.0-8.0,,f,931,cube,blicket_images/lc.jpg,70664,blicket,18,image-keyboard-response,
842,shape_off,False,0,blicket_images/lc.jpg,,lc,,blicket_images/ds.jpg,0.0-9.0,,ds,2885,cube,"Which of these options shows the image from the last trial, that you just saw?",73552,pop_quiz,19,html-button-response,
842,shape_off,False,0,,,"['ds', 'ls']",,,0.0-10.0,[0],['ds'],3129,cube,,76688,rule_question,20,survey-multi-select,
846,shape_off,False,0,,j,on,blicket_images/ls.jpg,,0.0-6.0,,f,2765,cube,blicket_images/ls.jpg,54371,blicket,10,image-keyboard-response,
846,shape_off,False,0,,f,off,blicket_images/lc.jpg,,0.0-8.0,,j,1942,cube,blicket_images/lc.jpg,57791,blicket,12,image-keyboard-response,
846,shape_off,True,1,blicket_images/lc.jpg,,lc,,blicket_images/lc.jpg,0.0-9.0,,lc,3331,cube,"Which of these options shows the image from the last trial, that you just saw?",61124,pop_quiz,13,html-button-response,
846,shape_off,False,0,,,"['ds', 'ls']",,,0.0-10.0,[0],"['lc', 'ls']",8525,cube,,69653,rule_question,14,survey-multi-select,
789,shape_off,True,1,,f,off,blicket_images/ls.jpg,,0.0-6.0,,f,3862,cylinder,blicket_images/ls.jpg,82741,blicket,10,image-keyboard-response,
789,shape_off,False,0,,f,off,blicket_images/ds.jpg,,0.0-8.0,,j,3498,cylinder,blicket_images/ds.jpg,93259,blicket,12,image-keyboard-response,
789,shape_off,True,1,blicket_images/ds.jpg,,ds,,blicket_images/ds.jpg,0.0-9.0,,ds,5508,cylinder,"Which of these options shows the image from the last trial, that you just saw?",98769,pop_quiz,13,html-button-response,
789,shape_off,False,0,,,"['dc', 'lc']",,,0.0-10.0,[0],['ds'],4876,cylinder,,103651,rule_question,14,survey-multi-select,
726,shape_off,False,0,,f,off,blicket_images/ds.jpg,,0.0-6.0,,j,6867,cylinder,blicket_images/ds.jpg,72615,blicket,10,image-keyboard-response,
726,shape_off,False,0,,f,off,blicket_images/ls.jpg,,0.0-8.0,,j,2217,cylinder,blicket_images/ls.jpg,77877,blicket,12,image-keyboard-response,
726,shape_off,True,1,blicket_images/ls.jpg,,ls,,blicket_images/ls.jpg,0.0-9.0,,ls,2472,cylinder,"Which of these options shows the image from the last trial, that you just saw?",80352,pop_quiz,13,html-button-response,
726,shape_off,False,0,,,"['dc', 'lc']",,,0.0-10.0,[0],"['lc', 'ls']",10223,cylinder,,90583,rule_question,14,survey-multi-select,
806,shape_off,True,1,,j,on,blicket_images/dc.jpg,,0.0-6.0,,j,2260,cylinder,blicket_images/dc.jpg,76972,blicket,10,image-keyboard-response,
806,shape_off,False,0,,f,off,blicket_images/ds.jpg,,0.0-8.0,,j,1432,cylinder,blicket_images/ds.jpg,79812,blicket,12,image-keyboard-response,
806,shape_off,True,1,blicket_images/ds.jpg,,ds,,blicket_images/ds.jpg,0.0-9.0,,ds,3675,cylinder,"Which of these options shows the image from the last trial, that you just saw?",83489,pop_quiz,13,html-button-response,
806,shape_off,False,0,,,"['dc', 'lc']",,,0.0-10.0,[0],"['dc', 'ds']",3883,cylinder,,87375,rule_question,14,survey-multi-select,
822,shape_off,False,0,,j,on,blicket_images/lc.jpg,,0.0-6.0,,f,10833,cylinder,blicket_images/lc.jpg,118587,blicket,10,image-keyboard-response,
822,shape_off,True,1,,f,off,blicket_images/ds.jpg,,0.0-8.0,,f,2326,cylinder,blicket_images/ds.jpg,122456,blicket,12,image-keyboard-response,
822,shape_off,False,0,blicket_images/ds.jpg,,ds,,blicket_images/dc.jpg,0.0-9.0,,dc,7859,cylinder,"Which of these options shows the image from the last trial, that you just saw?",130319,pop_quiz,13,html-button-response,
822,shape_off,False,0,,,"['dc', 'lc']",,,0.0-10.0,[0],['lc'],8415,cylinder,,138742,rule_question,14,survey-multi-select,
830,shape_off,False,0,,f,off,blicket_images/ds.jpg,,0.0-6.0,,j,3132,cylinder,blicket_images/ds.jpg,156338,blicket,10,image-keyboard-response,
830,shape_off,False,0,,f,off,blicket_images/ls.jpg,,0.0-8.0,,j,4312,cylinder,blicket_images/ls.jpg,166047,blicket,12,image-keyboard-response,
830,shape_off,True,1,blicket_images/ls.jpg,,ls,,blicket_images/ls.jpg,0.0-9.0,,ls,6077,cylinder,"Which of these options shows the image from the last trial, that you just saw?",172127,pop_quiz,13,html-button-response,
830,shape_off,False,0,,,"['dc', 'lc']",,,0.0-10.0,[0],"['lc', 'ls']",8838,cylinder,,180970,rule_question,14,survey-multi-select,
797,shape_off,True,1,,j,on,blicket_images/ls.jpg,,0.0-6.0,,j,5483,cube,blicket_images/ls.jpg,82868,blicket,10,image-keyboard-response,
797,shape_off,False,0,,f,off,blicket_images/lc.jpg,,0.0-8.0,,j,8136,cube,blicket_images/lc.jpg,93268,blicket,12,image-keyboard-response,
797,shape_off,True,1,blicket_images/lc.jpg,,lc,,blicket_images/lc.jpg,0.0-9.0,,lc,3517,cube,"Which of these options shows the image from the last trial, that you just saw?",96786,pop_quiz,13,html-button-response,
797,shape_off,False,0,,,"['ds', 'ls']",,,0.0-10.0,[0],['ds'],6647,cube,,103470,rule_question,14,survey-multi-select,
801,shape_off,True,1,,j,on,blicket_images/dc.jpg,,0.0-6.0,,j,11840,cylinder,blicket_images/dc.jpg,92852,blicket,10,image-keyboard-response,
801,shape_off,True,1,,f,off,blicket_images/ls.jpg,,0.0-8.0,,f,2180,cylinder,blicket_images/ls.jpg,96635,blicket,12,image-keyboard-response,
801,shape_off,True,1,blicket_images/ls.jpg,,ls,,blicket_images/ls.jpg,0.0-9.0,,ls,3241,cylinder,"Which of these options shows the image from the last trial, that you just saw?",99880,pop_quiz,13,html-button-response,
801,shape_off,False,0,,,"['dc', 'lc']",,,0.0-10.0,[0],['dc'],3648,cylinder,,103532,rule_question,14,survey-multi-select,
771,shape_off,True,1,,j,on,blicket_images/ds.jpg,,0.0-6.0,,j,7909,cube,blicket_images/ds.jpg,328872,blicket,22,image-keyboard-response,
771,shape_off,False,0,,f,off,blicket_images/lc.jpg,,0.0-8.0,,j,8398,cube,blicket_images/lc.jpg,339576,blicket,24,image-keyboard-response,
771,shape_off,True,1,blicket_images/lc.jpg,,lc,,blicket_images/lc.jpg,0.0-9.0,,lc,5686,cube,"Which of these options shows the image from the last trial, that you just saw?",345266,pop_quiz,25,html-button-response,
771,shape_off,False,0,,,"['ds', 'ls']",,,0.0-10.0,[0],"['dc', 'ds', 'lc', 'ls']",14442,cube,,359711,rule_question,26,survey-multi-select,
743,shape_off,True,1,,j,on,blicket_images/ls.jpg,,0.0-6.0,,j,2730,cube,blicket_images/ls.jpg,121508,blicket,22,image-keyboard-response,
743,shape_off,True,1,,f,off,blicket_images/dc.jpg,,0.0-8.0,,f,1518,cube,blicket_images/dc.jpg,123879,blicket,24,image-keyboard-response,
743,shape_off,False,0,blicket_images/dc.jpg,,dc,,blicket_images/ds.jpg,0.0-9.0,,ds,5777,cube,"Which of these options shows the image from the last trial, that you just saw?",129667,pop_quiz,25,html-button-response,
743,shape_off,True,1,,,"['ds', 'ls']",,,0.0-10.0,[0],"['ds', 'ls']",7108,cube,,136785,rule_question,26,survey-multi-select,
751,shape_off,False,0,,j,on,blicket_images/ls.jpg,,0.0-6.0,,f,3957,cube,blicket_images/ls.jpg,99790,blicket,16,image-keyboard-response,
751,shape_off,True,1,,f,off,blicket_images/dc.jpg,,0.0-8.0,,f,2578,cube,blicket_images/dc.jpg,104583,blicket,18,image-keyboard-response,
751,shape_off,False,0,blicket_images/dc.jpg,,dc,,blicket_images/ds.jpg,0.0-9.0,,ds,27184,cube,"Which of these options shows the image from the last trial, that you just saw?",131769,pop_quiz,19,html-button-response,
751,shape_off,False,0,,,"['ds', 'ls']",,,0.0-10.0,[0],['ds'],7427,cube,,139203,rule_question,20,survey-multi-select,
747,shape_off,False,0,,j,on,blicket_images/ls.jpg,,0.0-6.0,,f,3296,cube,blicket_images/ls.jpg,61029,blicket,10,image-keyboard-response,
747,shape_off,True,1,,f,off,blicket_images/dc.jpg,,0.0-8.0,,f,1454,cube,blicket_images/dc.jpg,65466,blicket,12,image-keyboard-response,
747,shape_off,False,0,blicket_images/dc.jpg,,dc,,blicket_images/lc.jpg,0.0-9.0,,lc,7128,cube,"Which of these options shows the image from the last trial, that you just saw?",72596,pop_quiz,13,html-button-response,
747,shape_off,True,1,,,"['ds', 'ls']",,,0.0-10.0,[0],"['ds', 'ls']",5348,cube,,77950,rule_question,14,survey-multi-select,
768,shape_off,True,1,,f,off,blicket_images/lc.jpg,,0.0-6.0,,f,5371,cube,blicket_images/lc.jpg,99521,blicket,10,image-keyboard-response,
768,shape_off,True,1,,f,off,blicket_images/dc.jpg,,0.0-8.0,,f,3439,cube,blicket_images/dc.jpg,104473,blicket,12,image-keyboard-response,
768,shape_off,False,0,blicket_images/dc.jpg,,dc,,blicket_images/lc.jpg,0.0-9.0,,lc,10109,cube,"Which of these options shows the image from the last trial, that you just saw?",114584,pop_quiz,13,html-button-response,
768,shape_off,False,0,,,"['ds', 'ls']",,,0.0-10.0,[0],['ls'],12578,cube,,127165,rule_question,14,survey-multi-select,
809,shape_off,True,1,,j,on,blicket_images/ds.jpg,,0.0-6.0,,j,3795,cube,blicket_images/ds.jpg,52039,blicket,10,image-keyboard-response,
809,shape_off,True,1,,f,off,blicket_images/dc.jpg,,0.0-8.0,,f,1600,cube,blicket_images/dc.jpg,54784,blicket,12,image-keyboard-response,
809,shape_off,False,0,blicket_images/dc.jpg,,dc,,blicket_images/ds.jpg,0.0-9.0,,ds,3727,cube,"Which of these options shows the image from the last trial, that you just saw?",58513,pop_quiz,13,html-button-response,
809,shape_off,False,0,,,"['ds', 'ls']",,,0.0-10.0,[0],['ds'],6340,cube,,64858,rule_question,14,survey-multi-select,
813,shape_off,True,1,,j,on,blicket_images/dc.jpg,,0.0-6.0,,j,2751,cylinder,blicket_images/dc.jpg,106924,blicket,10,image-keyboard-response,
813,shape_off,True,1,,f,off,blicket_images/ls.jpg,,0.0-8.0,,f,2310,cylinder,blicket_images/ls.jpg,111451,blicket,12,image-keyboard-response,
813,shape_off,True,1,blicket_images/ls.jpg,,ls,,blicket_images/ls.jpg,0.0-9.0,,ls,2958,cylinder,"Which of these options shows the image from the last trial, that you just saw?",114411,pop_quiz,13,html-button-response,
813,shape_off,False,0,,,"['dc', 'lc']",,,0.0-10.0,[0],"['dc', 'ds']",8793,cylinder,,123213,rule_question,14,survey-multi-select,
817,shape_off,True,1,,j,on,blicket_images/dc.jpg,,0.0-6.0,,j,2020,cylinder,blicket_images/dc.jpg,71263,blicket,10,image-keyboard-response,
817,shape_off,True,1,,f,off,blicket_images/ds.jpg,,0.0-8.0,,f,1481,cylinder,blicket_images/ds.jpg,73907,blicket,12,image-keyboard-response,
817,shape_off,True,1,blicket_images/ds.jpg,,ds,,blicket_images/ds.jpg,0.0-9.0,,ds,7676,cylinder,"Which of these options shows the image from the last trial, that you just saw?",81586,pop_quiz,13,html-button-response,
817,shape_off,False,0,,,"['dc', 'lc']",,,0.0-10.0,[0],['ls'],9054,cylinder,,90647,rule_question,14,survey-multi-select,
849,shape_off,True,1,,f,off,blicket_images/ls.jpg,,0.0-6.0,,f,4509,cylinder,blicket_images/ls.jpg,81194,blicket,10,image-keyboard-response,
849,shape_off,True,1,,f,off,blicket_images/ds.jpg,,0.0-8.0,,f,2227,cylinder,blicket_images/ds.jpg,84961,blicket,12,image-keyboard-response,
849,shape_off,False,0,blicket_images/ds.jpg,,ds,,blicket_images/dc.jpg,0.0-9.0,,dc,7855,cylinder,"Which of these options shows the image from the last trial, that you just saw?",92819,pop_quiz,13,html-button-response,
849,shape_off,False,0,,,"['dc', 'lc']",,,0.0-10.0,[0],['dc'],5696,cylinder,,98527,rule_question,14,survey-multi-select,
834,shape_off,True,1,,j,on,blicket_images/ls.jpg,,0.0-6.0,,j,13505,cube,blicket_images/ls.jpg,77950,blicket,10,image-keyboard-response,
834,shape_off,True,1,,f,off,blicket_images/dc.jpg,,0.0-8.0,,f,7126,cube,blicket_images/dc.jpg,87566,blicket,12,image-keyboard-response,
834,shape_off,True,1,blicket_images/dc.jpg,,dc,,blicket_images/dc.jpg,0.0-9.0,,dc,6412,cube,"Which of these options shows the image from the last trial, that you just saw?",93981,pop_quiz,13,html-button-response,
834,shape_off,False,0,,,"['ds', 'ls']",,,0.0-10.0,[0],"['dc', 'lc']",8044,cube,,102029,rule_question,14,survey-multi-select,
760,shape_off,True,1,,j,on,blicket_images/ds.jpg,,0.0-6.0,,j,2206,cube,blicket_images/ds.jpg,81392,blicket,10,image-keyboard-response,
760,shape_off,False,0,,f,off,blicket_images/dc.jpg,,0.0-8.0,,j,964,cube,blicket_images/dc.jpg,84262,blicket,12,image-keyboard-response,
760,shape_off,True,1,blicket_images/dc.jpg,,dc,,blicket_images/dc.jpg,0.0-9.0,,dc,4523,cube,"Which of these options shows the image from the last trial, that you just saw?",88786,pop_quiz,13,html-button-response,
760,shape_off,False,0,,,"['ds', 'ls']",,,0.0-10.0,[0],['ds'],3936,cube,,92726,rule_question,14,survey-multi-select,
735,shape_off,False,0,,j,on,blicket_images/ds.jpg,,0.0-6.0,,f,5397,cube,blicket_images/ds.jpg,189999,blicket,10,image-keyboard-response,
735,shape_off,False,0,,f,off,blicket_images/lc.jpg,,0.0-8.0,,j,2632,cube,blicket_images/lc.jpg,194588,blicket,12,image-keyboard-response,
735,shape_off,True,1,blicket_images/lc.jpg,,lc,,blicket_images/lc.jpg,0.0-9.0,,lc,7118,cube,"Which of these options shows the image from the last trial, that you just saw?",201709,pop_quiz,13,html-button-response,
735,shape_off,False,0,,,"['ds', 'ls']",,,0.0-10.0,[0],['ds'],5574,cube,,207297,rule_question,14,survey-multi-select,
763,shape_off,False,0,,f,off,blicket_images/lc.jpg,,0.0-6.0,,j,3606,cube,blicket_images/lc.jpg,102254,blicket,10,image-keyboard-response,
763,shape_off,False,0,,f,off,blicket_images/dc.jpg,,0.0-8.0,,j,3190,cube,blicket_images/dc.jpg,108258,blicket,12,image-keyboard-response,
763,shape_off,True,1,blicket_images/dc.jpg,,dc,,blicket_images/dc.jpg,0.0-9.0,,dc,12820,cube,"Which of these options shows the image from the last trial, that you just saw?",121079,pop_quiz,13,html-button-response,
763,shape_off,False,0,,,"['ds', 'ls']",,,0.0-10.0,[0],['ls'],7924,cube,,129011,rule_question,14,survey-multi-select,
782,shape_off,False,0,,j,on,blicket_images/lc.jpg,,0.0-6.0,,f,1737,cylinder,blicket_images/lc.jpg,48199,blicket,10,image-keyboard-response,
782,shape_off,False,0,,f,off,blicket_images/ls.jpg,,0.0-8.0,,j,1217,cylinder,blicket_images/ls.jpg,50705,blicket,12,image-keyboard-response,
782,shape_off,False,0,blicket_images/ls.jpg,,ls,,blicket_images/lc.jpg,0.0-9.0,,lc,2347,cylinder,"Which of these options shows the image from the last trial, that you just saw?",53053,pop_quiz,13,html-button-response,
782,shape_off,False,0,,,"['dc', 'lc']",,,0.0-10.0,[0],['ds'],4878,cylinder,,57935,rule_question,14,survey-multi-select,
732,shape_off,True,1,,j,on,blicket_images/ds.jpg,,0.0-6.0,,j,10357,cube,blicket_images/ds.jpg,298545,blicket,10,image-keyboard-response,
732,shape_off,False,0,,f,off,blicket_images/lc.jpg,,0.0-8.0,,j,5526,cube,blicket_images/lc.jpg,306769,blicket,12,image-keyboard-response,
732,shape_off,False,0,blicket_images/lc.jpg,,lc,,blicket_images/ls.jpg,0.0-9.0,,ls,21412,cube,"Which of these options shows the image from the last trial, that you just saw?",328184,pop_quiz,13,html-button-response,
732,shape_off,False,0,,,"['ds', 'ls']",,,0.0-10.0,[0],['ds'],37017,cube,,365205,rule_question,14,survey-multi-select,
812,shape_on,False,0,,f,off,blicket_images/lc.jpg,,0.0-6.0,,j,3400,cube,blicket_images/lc.jpg,101233,blicket,10,image-keyboard-response,
812,shape_on,True,1,,j,on,blicket_images/ds.jpg,,0.0-8.0,,j,2949,cube,blicket_images/ds.jpg,105746,blicket,12,image-keyboard-response,
812,shape_on,True,1,blicket_images/ds.jpg,,ds,,blicket_images/ds.jpg,0.0-9.0,,ds,6369,cube,"Which of these options shows the image from the last trial, that you just saw?",112117,pop_quiz,13,html-button-response,
812,shape_on,True,1,,,"['ds', 'ls']",,,0.0-10.0,[0],"['ds', 'ls']",8506,cube,,120628,rule_question,14,survey-multi-select,
804,shape_on,True,1,,j,on,blicket_images/lc.jpg,,0.0-6.0,,j,6749,cylinder,blicket_images/lc.jpg,164900,blicket,10,image-keyboard-response,
804,shape_on,True,1,,j,on,blicket_images/dc.jpg,,0.0-8.0,,j,3595,cylinder,blicket_images/dc.jpg,177888,blicket,12,image-keyboard-response,
804,shape_on,False,0,blicket_images/dc.jpg,,dc,,blicket_images/lc.jpg,0.0-9.0,,lc,11210,cylinder,"Which of these options shows the image from the last trial, that you just saw?",189090,pop_quiz,13,html-button-response,
804,shape_on,True,1,,,"['dc', 'lc']",,,0.0-10.0,[0],"['dc', 'lc']",10162,cylinder,,199261,rule_question,14,survey-multi-select,
742,shape_on,False,0,,j,on,blicket_images/ls.jpg,,0.0-6.0,,f,5564,cube,blicket_images/ls.jpg,287098,blicket,22,image-keyboard-response,
742,shape_on,False,0,,j,on,blicket_images/ds.jpg,,0.0-8.0,,f,1973,cube,blicket_images/ds.jpg,290436,blicket,24,image-keyboard-response,
742,shape_on,False,0,blicket_images/ds.jpg,,ds,,blicket_images/ls.jpg,0.0-9.0,,ls,4298,cube,"Which of these options shows the image from the last trial, that you just saw?",294740,pop_quiz,25,html-button-response,
742,shape_on,False,0,,,"['ds', 'ls']",,,0.0-10.0,[0],"['lc', 'ls']",6129,cube,,300871,rule_question,26,survey-multi-select,
734,shape_on,True,1,,f,off,blicket_images/ds.jpg,,0.0-6.0,,f,3388,cylinder,blicket_images/ds.jpg,93096,blicket,10,image-keyboard-response,
734,shape_on,True,1,,j,on,blicket_images/lc.jpg,,0.0-8.0,,j,2307,cylinder,blicket_images/lc.jpg,110297,blicket,12,image-keyboard-response,
734,shape_on,True,1,blicket_images/lc.jpg,,lc,,blicket_images/lc.jpg,0.0-9.0,,lc,7448,cylinder,"Which of these options shows the image from the last trial, that you just saw?",117750,pop_quiz,13,html-button-response,
734,shape_on,False,0,,,"['dc', 'lc']",,,0.0-10.0,[0],['ds'],7280,cylinder,,125046,rule_question,14,survey-multi-select,
770,shape_on,False,0,,f,off,blicket_images/lc.jpg,,0.0-6.0,,j,1935,cube,blicket_images/lc.jpg,64781,blicket,10,image-keyboard-response,
770,shape_on,False,0,,j,on,blicket_images/ls.jpg,,0.0-8.0,,f,1453,cube,blicket_images/ls.jpg,67438,blicket,12,image-keyboard-response,
770,shape_on,True,1,blicket_images/ls.jpg,,ls,,blicket_images/ls.jpg,0.0-9.0,,ls,5247,cube,"Which of these options shows the image from the last trial, that you just saw?",72686,pop_quiz,13,html-button-response,
770,shape_on,False,0,,,"['ds', 'ls']",,,0.0-10.0,[0],['ls'],8409,cube,,81098,rule_question,14,survey-multi-select,
728,shape_on,False,0,,f,off,blicket_images/ds.jpg,,0.0-6.0,,j,5036,cylinder,blicket_images/ds.jpg,209023,blicket,10,image-keyboard-response,
728,shape_on,False,0,,j,on,blicket_images/dc.jpg,,0.0-8.0,,f,2655,cylinder,blicket_images/dc.jpg,213362,blicket,12,image-keyboard-response,
728,shape_on,True,1,blicket_images/dc.jpg,,dc,,blicket_images/dc.jpg,0.0-9.0,,dc,6306,cylinder,"Which of these options shows the image from the last trial, that you just saw?",219671,pop_quiz,13,html-button-response,
728,shape_on,False,0,,,"['dc', 'lc']",,,0.0-10.0,[0],"['dc', 'ds', 'lc', 'ls']",10861,cylinder,,230540,rule_question,14,survey-multi-select,
780,shape_on,False,0,,f,off,blicket_images/ls.jpg,,0.0-6.0,,j,3589,cylinder,blicket_images/ls.jpg,72483,blicket,10,image-keyboard-response,
780,shape_on,True,1,,j,on,blicket_images/lc.jpg,,0.0-8.0,,j,2683,cylinder,blicket_images/lc.jpg,76755,blicket,12,image-keyboard-response,
780,shape_on,True,1,blicket_images/lc.jpg,,lc,,blicket_images/lc.jpg,0.0-9.0,,lc,4448,cylinder,"Which of these options shows the image from the last trial, that you just saw?",81206,pop_quiz,13,html-button-response,
780,shape_on,True,1,,,"['dc', 'lc']",,,0.0-10.0,[0],"['dc', 'lc']",11850,cylinder,,93065,rule_question,14,survey-multi-select,
738,shape_on,False,0,,f,off,blicket_images/dc.jpg,,0.0-6.0,,j,3567,cube,blicket_images/dc.jpg,86544,blicket,10,image-keyboard-response,
738,shape_on,True,1,,j,on,blicket_images/ls.jpg,,0.0-8.0,,j,1585,cube,blicket_images/ls.jpg,89486,blicket,12,image-keyboard-response,
738,shape_on,False,0,blicket_images/ls.jpg,,ls,,blicket_images/lc.jpg,0.0-9.0,,lc,3596,cube,"Which of these options shows the image from the last trial, that you just saw?",93084,pop_quiz,13,html-button-response,
738,shape_on,False,0,,,"['ds', 'ls']",,,0.0-10.0,[0],['lc'],4392,cube,,97481,rule_question,14,survey-multi-select,
793,shape_on,True,1,,f,off,blicket_images/ds.jpg,,0.0-6.0,,f,4236,cylinder,blicket_images/ds.jpg,117729,blicket,10,image-keyboard-response,
793,shape_on,False,0,,j,on,blicket_images/lc.jpg,,0.0-8.0,,f,2278,cylinder,blicket_images/lc.jpg,123879,blicket,12,image-keyboard-response,
793,shape_on,True,1,blicket_images/lc.jpg,,lc,,blicket_images/lc.jpg,0.0-9.0,,lc,5926,cylinder,"Which of these options shows the image from the last trial, that you just saw?",129809,pop_quiz,13,html-button-response,
793,shape_on,False,0,,,"['dc', 'lc']",,,0.0-10.0,[0],['ls'],12813,cylinder,,142635,rule_question,14,survey-multi-select,
796,shape_on,True,1,,f,off,blicket_images/lc.jpg,,0.0-6.0,,f,26486,cube,blicket_images/lc.jpg,131423,blicket,16,image-keyboard-response,
796,shape_on,True,1,,j,on,blicket_images/ds.jpg,,0.0-8.0,,j,6886,cube,blicket_images/ds.jpg,144239,blicket,18,image-keyboard-response,
796,shape_on,True,1,blicket_images/ds.jpg,,ds,,blicket_images/ds.jpg,0.0-9.0,,ds,4621,cube,"Which of these options shows the image from the last trial, that you just saw?",148862,pop_quiz,19,html-button-response,
796,shape_on,False,0,,,"['ds', 'ls']",,,0.0-10.0,[0],"['dc', 'ds']",8227,cube,,157103,rule_question,20,survey-multi-select,
800,shape_on,False,0,,f,off,blicket_images/ds.jpg,,0.0-6.0,,j,3561,cylinder,blicket_images/ds.jpg,71743,blicket,10,image-keyboard-response,
800,shape_on,True,1,,j,on,blicket_images/dc.jpg,,0.0-8.0,,j,2122,cylinder,blicket_images/dc.jpg,75284,blicket,12,image-keyboard-response,
800,shape_on,True,1,blicket_images/dc.jpg,,dc,,blicket_images/dc.jpg,0.0-9.0,,dc,3877,cylinder,"Which of these options shows the image from the last trial, that you just saw?",79162,pop_quiz,13,html-button-response,
800,shape_on,True,1,,,"['dc', 'lc']",,,0.0-10.0,[0],"['dc', 'lc']",7234,cylinder,,86399,rule_question,14,survey-multi-select,
766,shape_on,True,1,,j,on,blicket_images/ds.jpg,,0.0-6.0,,j,5736,cube,blicket_images/ds.jpg,65301,blicket,10,image-keyboard-response,
766,shape_on,False,0,,j,on,blicket_images/ls.jpg,,0.0-8.0,,f,1217,cube,blicket_images/ls.jpg,67658,blicket,12,image-keyboard-response,
766,shape_on,False,0,blicket_images/ls.jpg,,ls,,blicket_images/ds.jpg,0.0-9.0,,ds,2512,cube,"Which of these options shows the image from the last trial, that you just saw?",70172,pop_quiz,13,html-button-response,
766,shape_on,False,0,,,"['ds', 'ls']",,,0.0-10.0,[0],['ds'],3741,cube,,73919,rule_question,14,survey-multi-select,
845,shape_on,False,0,,f,off,blicket_images/ls.jpg,,0.0-6.0,,j,3946,cylinder,blicket_images/ls.jpg,70839,blicket,10,image-keyboard-response,
845,shape_on,True,1,,j,on,blicket_images/dc.jpg,,0.0-8.0,,j,3358,cylinder,blicket_images/dc.jpg,75637,blicket,12,image-keyboard-response,
845,shape_on,True,1,blicket_images/dc.jpg,,dc,,blicket_images/dc.jpg,0.0-9.0,,dc,3180,cylinder,"Which of these options shows the image from the last trial, that you just saw?",78819,pop_quiz,13,html-button-response,
845,shape_on,False,0,,,"['dc', 'lc']",,,0.0-10.0,[0],['dc'],5595,cylinder,,84418,rule_question,14,survey-multi-select,
750,shape_on,True,1,,j,on,blicket_images/ls.jpg,,0.0-6.0,,j,1515,cube,blicket_images/ls.jpg,91857,blicket,16,image-keyboard-response,
750,shape_on,False,0,,j,on,blicket_images/ds.jpg,,0.0-8.0,,f,743,cube,blicket_images/ds.jpg,94890,blicket,18,image-keyboard-response,
750,shape_on,True,1,blicket_images/ds.jpg,,ds,,blicket_images/ds.jpg,0.0-9.0,,ds,9276,cube,"Which of these options shows the image from the last trial, that you just saw?",104174,pop_quiz,19,html-button-response,
750,shape_on,False,0,,,"['ds', 'ls']",,,0.0-10.0,[0],['ls'],5110,cube,,109288,rule_question,20,survey-multi-select,
833,shape_on,False,0,,f,off,blicket_images/ls.jpg,,0.0-6.0,,j,4446,cylinder,blicket_images/ls.jpg,82988,blicket,10,image-keyboard-response,
833,shape_on,False,0,,j,on,blicket_images/lc.jpg,,0.0-8.0,,f,3261,cylinder,blicket_images/lc.jpg,93611,blicket,12,image-keyboard-response,
833,shape_on,True,1,blicket_images/lc.jpg,,lc,,blicket_images/lc.jpg,0.0-9.0,,lc,5051,cylinder,"Which of these options shows the image from the last trial, that you just saw?",98663,pop_quiz,13,html-button-response,
833,shape_on,False,0,,,"['dc', 'lc']",,,0.0-10.0,[0],"['dc', 'ds']",14839,cylinder,,113507,rule_question,14,survey-multi-select,
730,shape_on,True,1,,j,on,blicket_images/dc.jpg,,0.0-6.0,,j,3407,cylinder,blicket_images/dc.jpg,49081,blicket,10,image-keyboard-response,
730,shape_on,True,1,,j,on,blicket_images/lc.jpg,,0.0-8.0,,j,1162,cylinder,blicket_images/lc.jpg,51247,blicket,12,image-keyboard-response,
730,shape_on,False,0,blicket_images/lc.jpg,,lc,,blicket_images/dc.jpg,0.0-9.0,,dc,2277,cylinder,"Which of these options shows the image from the last trial, that you just saw?",53527,pop_quiz,13,html-button-response,
730,shape_on,False,0,,,"['dc', 'lc']",,,0.0-10.0,[0],['dc'],2864,cylinder,,56407,rule_question,14,survey-multi-select,
758,shape_on,False,0,,f,off,blicket_images/lc.jpg,,0.0-6.0,,j,3808,cube,blicket_images/lc.jpg,119701,blicket,10,image-keyboard-response,
758,shape_on,True,1,,j,on,blicket_images/ds.jpg,,0.0-8.0,,j,2417,cube,blicket_images/ds.jpg,123992,blicket,12,image-keyboard-response,
758,shape_on,False,0,blicket_images/ds.jpg,,ds,,blicket_images/lc.jpg,0.0-9.0,,lc,4113,cube,"Which of these options shows the image from the last trial, that you just saw?",128109,pop_quiz,13,html-button-response,
758,shape_on,False,0,,,"['ds', 'ls']",,,0.0-10.0,[0],['dc'],8244,cube,,136360,rule_question,14,survey-multi-select,
837,shape_on,False,0,,f,off,blicket_images/ds.jpg,,0.0-6.0,,j,2642,cylinder,blicket_images/ds.jpg,125170,blicket,16,image-keyboard-response,
837,shape_on,True,1,,j,on,blicket_images/dc.jpg,,0.0-8.0,,j,2599,cylinder,blicket_images/dc.jpg,129310,blicket,18,image-keyboard-response,
837,shape_on,False,0,blicket_images/dc.jpg,,dc,,blicket_images/ds.jpg,0.0-9.0,,ds,3138,cylinder,"Which of these options shows the image from the last trial, that you just saw?",132450,pop_quiz,19,html-button-response,
837,shape_on,False,0,,,"['dc', 'lc']",,,0.0-10.0,[0],"['dc', 'ls']",11337,cylinder,,143790,rule_question,20,survey-multi-select,
808,shape_on,False,0,,f,off,blicket_images/dc.jpg,,0.0-6.0,,j,2539,cube,blicket_images/dc.jpg,66285,blicket,10,image-keyboard-response,
808,shape_on,True,1,,j,on,blicket_images/ls.jpg,,0.0-8.0,,j,2746,cube,blicket_images/ls.jpg,74027,blicket,12,image-keyboard-response,
808,shape_on,True,1,blicket_images/ls.jpg,,ls,,blicket_images/ls.jpg,0.0-9.0,,ls,4061,cube,"Which of these options shows the image from the last trial, that you just saw?",78091,pop_quiz,13,html-button-response,
808,shape_on,False,0,,,"['ds', 'ls']",,,0.0-10.0,[0],['ls'],4530,cube,,82626,rule_question,14,survey-multi-select,
816,shape_on,True,1,,j,on,blicket_images/dc.jpg,,0.0-6.0,,j,4887,cylinder,blicket_images/dc.jpg,78076,blicket,10,image-keyboard-response,
816,shape_on,True,1,,j,on,blicket_images/lc.jpg,,0.0-8.0,,j,4309,cylinder,blicket_images/lc.jpg,86818,blicket,12,image-keyboard-response,
816,shape_on,True,1,blicket_images/lc.jpg,,lc,,blicket_images/lc.jpg,0.0-9.0,,lc,11181,cylinder,"Which of these options shows the image from the last trial, that you just saw?",98001,pop_quiz,13,html-button-response,
816,shape_on,False,0,,,"['dc', 'lc']",,,0.0-10.0,[0],['dc'],5569,cylinder,,103574,rule_question,14,survey-multi-select,
762,shape_on,False,0,,f,off,blicket_images/lc.jpg,,0.0-6.0,,j,5336,cube,blicket_images/lc.jpg,68901,blicket,10,image-keyboard-response,
762,shape_on,True,1,,j,on,blicket_images/ds.jpg,,0.0-8.0,,j,2529,cube,blicket_images/ds.jpg,73119,blicket,12,image-keyboard-response,
762,shape_on,True,1,blicket_images/ds.jpg,,ds,,blicket_images/ds.jpg,0.0-9.0,,ds,5050,cube,"Which of these options shows the image from the last trial, that you just saw?",78170,pop_quiz,13,html-button-response,
762,shape_on,False,0,,,"['ds', 'ls']",,,0.0-10.0,[0],"['dc', 'ds']",10548,cube,,88724,rule_question,14,survey-multi-select,
841,shape_on,False,0,,f,off,blicket_images/ls.jpg,,0.0-6.0,,j,7858,cylinder,blicket_images/ls.jpg,166747,blicket,10,image-keyboard-response,
841,shape_on,True,1,,j,on,blicket_images/dc.jpg,,0.0-8.0,,j,4696,cylinder,blicket_images/dc.jpg,177900,blicket,12,image-keyboard-response,
841,shape_on,False,0,blicket_images/dc.jpg,,dc,,blicket_images/ls.jpg,0.0-9.0,,ls,18477,cylinder,"Which of these options shows the image from the last trial, that you just saw?",196380,pop_quiz,13,html-button-response,
841,shape_on,False,0,,,"['dc', 'lc']",,,0.0-10.0,[0],"['dc', 'ds']",13944,cylinder,,210328,rule_question,14,survey-multi-select,
775,shape_on,True,1,,f,off,blicket_images/ds.jpg,,0.0-6.0,,f,6622,cylinder,blicket_images/ds.jpg,93849,blicket,10,image-keyboard-response,
775,shape_on,False,0,,j,on,blicket_images/dc.jpg,,0.0-8.0,,f,6611,cylinder,blicket_images/dc.jpg,102285,blicket,12,image-keyboard-response,
775,shape_on,True,1,blicket_images/dc.jpg,,dc,,blicket_images/dc.jpg,0.0-9.0,,dc,6718,cylinder,"Which of these options shows the image from the last trial, that you just saw?",109005,pop_quiz,13,html-button-response,
775,shape_on,False,0,,,"['dc', 'lc']",,,0.0-10.0,[0],['ds'],7997,cylinder,,117012,rule_question,14,survey-multi-select,
821,shape_on,False,0,,f,off,blicket_images/lc.jpg,,0.0-6.0,,j,6030,cube,blicket_images/lc.jpg,68370,blicket,10,image-keyboard-response,
821,shape_on,False,0,,j,on,blicket_images/ls.jpg,,0.0-8.0,,f,3311,cube,blicket_images/ls.jpg,73561,blicket,12,image-keyboard-response,
821,shape_on,True,1,blicket_images/ls.jpg,,ls,,blicket_images/ls.jpg,0.0-9.0,,ls,8442,cube,"Which of these options shows the image from the last trial, that you just saw?",82004,pop_quiz,13,html-button-response,
821,shape_on,False,0,,,"['ds', 'ls']",,,0.0-10.0,[0],"['dc', 'ds']",14664,cube,,96671,rule_question,14,survey-multi-select,
746,shape_on,True,1,,f,off,blicket_images/ds.jpg,,0.0-6.0,,f,2657,cylinder,blicket_images/ds.jpg,57646,blicket,10,image-keyboard-response,
746,shape_on,True,1,,j,on,blicket_images/lc.jpg,,0.0-8.0,,j,1525,cylinder,blicket_images/lc.jpg,60256,blicket,12,image-keyboard-response,
746,shape_on,False,0,blicket_images/lc.jpg,,lc,,blicket_images/ds.jpg,0.0-9.0,,ds,5856,cylinder,"Which of these options shows the image from the last trial, that you just saw?",66114,pop_quiz,13,html-button-response,
746,shape_on,False,0,,,"['dc', 'lc']",,,0.0-10.0,[0],['lc'],6810,cylinder,,72940,rule_question,14,survey-multi-select,
788,shape_on,False,0,,f,off,blicket_images/lc.jpg,,0.0-6.0,,j,3816,cube,blicket_images/lc.jpg,103794,blicket,10,image-keyboard-response,
788,shape_on,True,1,,j,on,blicket_images/ds.jpg,,0.0-8.0,,j,2914,cube,blicket_images/ds.jpg,117806,blicket,12,image-keyboard-response,
788,shape_on,True,1,blicket_images/ds.jpg,,ds,,blicket_images/ds.jpg,0.0-9.0,,ds,2824,cube,"Which of these options shows the image from the last trial, that you just saw?",120632,pop_quiz,13,html-button-response,
788,shape_on,True,1,,,"['ds', 'ls']",,,0.0-10.0,[0],"['ds', 'ls']",13694,cube,,134332,rule_question,14,survey-multi-select,
829,shape_on,True,1,,f,off,blicket_images/dc.jpg,,0.0-6.0,,f,4561,cube,blicket_images/dc.jpg,84317,blicket,10,image-keyboard-response,
829,shape_on,True,1,,j,on,blicket_images/ls.jpg,,0.0-8.0,,j,6427,cube,blicket_images/ls.jpg,96593,blicket,12,image-keyboard-response,
829,shape_on,True,1,blicket_images/ls.jpg,,ls,,blicket_images/ls.jpg,0.0-9.0,,ls,8493,cube,"Which of these options shows the image from the last trial, that you just saw?",105087,pop_quiz,13,html-button-response,
829,shape_on,False,0,,,"['ds', 'ls']",,,0.0-10.0,[0],['lc'],7918,cube,,113009,rule_question,14,survey-multi-select,
754,shape_on,False,0,,j,on,blicket_images/dc.jpg,,0.0-6.0,,f,2101,cylinder,blicket_images/dc.jpg,207538,blicket,10,image-keyboard-response,
754,shape_on,False,0,,j,on,blicket_images/lc.jpg,,0.0-8.0,,f,2731,cylinder,blicket_images/lc.jpg,214671,blicket,12,image-keyboard-response,
754,shape_on,True,1,blicket_images/lc.jpg,,lc,,blicket_images/lc.jpg,0.0-9.0,,lc,3599,cylinder,"Which of these options shows the image from the last trial, that you just saw?",218273,pop_quiz,13,html-button-response,
754,shape_on,False,0,,,"['dc', 'lc']",,,0.0-10.0,[0],['dc'],3915,cylinder,,222193,rule_question,14,survey-multi-select,
852,shape_on,False,0,,f,off,blicket_images/ds.jpg,,0.0-6.0,,j,3506,cylinder,blicket_images/ds.jpg,56061,blicket,10,image-keyboard-response,
852,shape_on,True,1,,j,on,blicket_images/lc.jpg,,0.0-8.0,,j,2116,cylinder,blicket_images/lc.jpg,59988,blicket,12,image-keyboard-response,
852,shape_on,True,1,blicket_images/lc.jpg,,lc,,blicket_images/lc.jpg,0.0-9.0,,lc,3550,cylinder,"Which of these options shows the image from the last trial, that you just saw?",63542,pop_quiz,13,html-button-response,
852,shape_on,False,0,,,"['dc', 'lc']",,,0.0-10.0,[0],['lc'],3923,cylinder,,67474,rule_question,14,survey-multi-select,
784,shape_on,True,1,,j,on,blicket_images/lc.jpg,,0.0-6.0,,j,5026,cylinder,blicket_images/lc.jpg,298386,blicket,10,image-keyboard-response,
784,shape_on,False,0,,j,on,blicket_images/dc.jpg,,0.0-8.0,,f,2648,cylinder,blicket_images/dc.jpg,313238,blicket,12,image-keyboard-response,
784,shape_on,True,1,blicket_images/dc.jpg,,dc,,blicket_images/dc.jpg,0.0-9.0,,dc,12021,cylinder,"Which of these options shows the image from the last trial, that you just saw?",325262,pop_quiz,13,html-button-response,
784,shape_on,False,0,,,"['dc', 'lc']",,,0.0-10.0,[0],"['lc', 'ls']",10418,cylinder,,335686,rule_question,14,survey-multi-select,
