workerid,proliferate.condition,accuracy,accuracy_bool,age,bonus,correct_img,correct_key,correct_response,ethnicity,failed_audio,failed_images,failed_video,feedback,gender,hidden_img,img_selected,internal_node_id,overall_accuracy,question_order,race,response,rt,rule,stimulus,success,time_elapsed,timeout,trial,trial_index,trial_type,view_history,error
815,color_on,,,,,,,,,[],[],[],,,,,0.0-0.0,,,,,,cylinder,,True,72,False,,0,preload,,
815,color_on,,,,,,,,,[],[],[],,,,,0.0-1.0,,,,,,cylinder,,True,134,False,,1,preload,,
815,color_on,,,,,,,,,,,,,,,,0.0-2.0,,,,,,cylinder,,True,2272,,,2,fullscreen,,
815,color_on,,,,,,,,,,,,,,,,0.0-3.0,,,,0,2033,cylinder,"<p><b>Consent Form</b></p> <div style=""text-align:left;background-color:lightblue; padding:20px; max-width:900px;""><p><b>Description:</b> Welcome! You are invited to participate in a research study in cognitive psychology. You will be asked to perform various tasks on a computer which may include: looking at images or videos, listening to sounds, reading scenarios, or playing games. You may be asked a number of different questions about making judgments and intepreting people's actions. All information collected will remain confidential. </p> <p> <b>Risks and benefits:</b> Risks involved in this study are the same as those normally associated with using a computer (e.g., mild eye/arm strain). If you have any pre- existing conditions that might make reading and completing a computer-based survey strenuous for you, you should probably elect to not participate in this study. If at any time during the study you feel unable to participate because you are experiencing strain, you may end your participation without penalty. We cannot and do not guarantee or promise that you will receive any benefits from this study. Your decision whether or not to participate in this study will not affect your employment, medical care, and/or grades in school. </p><p><b>Time involvement:</b> Your participation in this experiment will take  5 minutes. </p><p><b> Payment:</b> If recruitment materials indicate payment (e.g., Prolific or other recruitment), you will receive compensation as indicated. </p><p><b>Subject's rights:</b> If you have read this notice and have decided to participate in this project, please understand your participation is voluntary and you have the right to withdraw your consent or discontinue participation at any time without penalty or loss of benefits to which you are otherwise entitled. You have the right to refuse to answer particular questions. Your individual privacy will be maintained in all published and written data resulting from the study. </p><p><b>Contact information:</b> If you have any questions, concerns or complaints about this research study, its procedures, or risks and benefits, you should ask the Protocol Director, (Professor Tobias Gerstenberg, Phone: (650) 725-2431; Email: gerstenberg@stanford.edu). </p><p><b>Independent contact:</b> If you are not satisfied with how this study is being conducted, or if you have any concerns, complaints, or general questions about the research or your rights as a participant, please contact the Stanford Institutional Review Board (IRB) to speak to someone independent of the research team via email at irb2-manager@lists.stanford.edu, or via phone at (650) 723-2480 or toll free at 1-866-680-2906. You can also write to the Stanford IRB, Stanford University, 3000 El Camino Real, Five Palo Alto Square, 4th Floor, Palo Alto, CA 94306. </p><p>You may want to print a copy of this consent form to keep. By clicking the button below, you acknowledge that you have read the above information, that you are 18 years of age, or older and give your consent to participate in our internet-based study and consent for us to analyze the resulting data. </p> </div><p> Do you agree with the terms of the experiment as explained above? </p>",,4307,,,3,html-button-response,,
815,color_on,,,,,,,,,,,,,,,,0.0-4.0-0.0,,,,,6471,cylinder,,,10779,,instructions_pt1,4,instructions,"[{'page_index': 0, 'viewing_time': 948}, {'page_index': 1, 'viewing_time': 1268}, {'page_index': 2, 'viewing_time': 687}, {'page_index': 3, 'viewing_time': 1857}, {'page_index': 4, 'viewing_time': 1710}]",
815,color_on,True,,,,,,j,,,,,,,,,0.0-4.0-1.0-0.0,,,,j,3523,cylinder,blicket_images/red_pyramid.jpg,,14312,,comprehension_quiz,5,image-keyboard-response,,
815,color_on,True,,,,,, ,,,,,,,,,0.0-4.0-1.0-1.0,,,, ,1387,cylinder,blicket_images/red_pyramid_on.jpg,,15700,,comprehension_quiz,6,image-keyboard-response,,
815,color_on,True,,,,,,f,,,,,,,,,0.0-4.0-1.0-2.0,,,,f,2521,cylinder,blicket_images/purple_prism.jpg,,18222,,comprehension_quiz,7,image-keyboard-response,,
815,color_on,True,,,,,, ,,,,,,,,,0.0-4.0-1.0-3.0,,,, ,1267,cylinder,blicket_images/purple_prism_off.jpg,,19491,,comprehension_quiz,8,image-keyboard-response,,
815,color_on,,,,,,,,,,,,,,,,0.0-5.0,,,,,25130,cylinder,,,44623,,,9,instructions,"[{'page_index': 0, 'viewing_time': 2844}, {'page_index': 1, 'viewing_time': 1753}, {'page_index': 2, 'viewing_time': 758}, {'page_index': 3, 'viewing_time': 1105}, {'page_index': 4, 'viewing_time': 810}, {'page_index': 5, 'viewing_time': 4615}, {'page_index': 6, 'viewing_time': 6762}, {'page_index': 7, 'viewing_time': 5501}, {'page_index': 8, 'viewing_time': 983}]",
815,color_on,True,1,,,,j,on,,,,,,,blicket_images/dc.jpg,,0.0-6.0,,,,j,1723,cylinder,blicket_images/dc.jpg,,46348,,blicket,10,image-keyboard-response,,
815,color_on,,,,,,,,,,,,,,blicket_images/dc.jpg,,0.0-7.0,,,, ,1758,cylinder,blicket_images/dc_on.jpg,,48109,,feedback,11,image-keyboard-response,,
815,color_on,False,0,,,,f,off,,,,,,,blicket_images/ds.jpg,,0.0-8.0,,,,j,1241,cylinder,blicket_images/ds.jpg,,49351,,blicket,12,image-keyboard-response,,
815,color_on,True,1,,,blicket_images/ds.jpg,,ds,,,,,,,,blicket_images/ds.jpg,0.0-9.0,,,,ds,3427,cylinder,"Which of these options shows the image from the last trial, that you just saw?",,52780,,pop_quiz,13,html-button-response,,
815,color_on,False,0,,,,,"['dc', 'lc']",,,,,,,,,0.0-10.0,,[0],,['dc'],4823,cylinder,,,57611,,rule_question,14,survey-multi-select,,
815,color_on,,,,,,,,,,,,,,,,0.0-11.0,,,,0,6067,cylinder,"<p>Thank you for participating!</p>You answered 1 out of 2 trials correctly, and will recieve a 3 cent bonus.<p>Now you will complete a short survey before finishing the experiment.</p>",,63682,,,15,html-button-response,,
815,color_on,,,30,0.025,,,,Non-Hispanic,,,,,Male,,,0.0-12.0,0.5,,White,"{'age': '30', 'race': 'White', 'gender': 'Male', 'feedback': '', 'ethnicity': 'Non-Hispanic', 'other_race': '', 'other_gender': ''}",8474,cylinder,,,72161,,exit_survey,16,survey-html-form,,
749,color_on,,,,,,,,,[],[],[],,,,,0.0-0.0,,,,,,dark,,True,252,False,,0,preload,,
749,color_on,,,,,,,,,[],[],[],,,,,0.0-1.0,,,,,,dark,,True,569,False,,1,preload,,
749,color_on,,,,,,,,,,,,,,,,0.0-2.0,,,,,,dark,,True,4418,,,2,fullscreen,,
749,color_on,,,,,,,,,,,,,,,,0.0-3.0,,,,0,4274,dark,"<p><b>Consent Form</b></p> <div style=""text-align:left;background-color:lightblue; padding:20px; max-width:900px;""><p><b>Description:</b> Welcome! You are invited to participate in a research study in cognitive psychology. You will be asked to perform various tasks on a computer which may include: looking at images or videos, listening to sounds, reading scenarios, or playing games. You may be asked a number of different questions about making judgments and intepreting people's actions. All information collected will remain confidential. </p> <p> <b>Risks and benefits:</b> Risks involved in this study are the same as those normally associated with using a computer (e.g., mild eye/arm strain). If you have any pre- existing conditions that might make reading and completing a computer-based survey strenuous for you, you should probably elect to not participate in this study. If at any time during the study you feel unable to participate because you are experiencing strain, you may end your participation without penalty. We cannot and do not guarantee or promise that you will receive any benefits from this study. Your decision whether or not to participate in this study will not affect your employment, medical care, and/or grades in school. </p><p><b>Time involvement:</b> Your participation in this experiment will take  5 minutes. </p><p><b> Payment:</b> If recruitment materials indicate payment (e.g., Prolific or other recruitment), you will receive compensation as indicated. </p><p><b>Subject's rights:</b> If you have read this notice and have decided to participate in this project, please understand your participation is voluntary and you have the right to withdraw your consent or discontinue participation at any time without penalty or loss of benefits to which you are otherwise entitled. You have the right to refuse to answer particular questions. Your individual privacy will be maintained in all published and written data resulting from the study. </p><p><b>Contact information:</b> If you have any questions, concerns or complaints about this research study, its procedures, or risks and benefits, you should ask the Protocol Director, (Professor Tobias Gerstenberg, Phone: (650) 725-2431; Email: gerstenberg@stanford.edu). </p><p><b>Independent contact:</b> If you are not satisfied with how this study is being conducted, or if you have any concerns, complaints, or general questions about the research or your rights as a participant, please contact the Stanford Institutional Review Board (IRB) to speak to someone independent of the research team via email at irb2-manager@lists.stanford.edu, or via phone at (650) 723-2480 or toll free at 1-866-680-2906. You can also write to the Stanford IRB, Stanford University, 3000 El Camino Real, Five Palo Alto Square, 4th Floor, Palo Alto, CA 94306. </p><p>You may want to print a copy of this consent form to keep. By clicking the button below, you acknowledge that you have read the above information, that you are 18 years of age, or older and give your consent to participate in our internet-based study and consent for us to analyze the resulting data. </p> </div><p> Do you agree with the terms of the experiment as explained above? </p>",,8696,,,3,html-button-response,,
749,color_on,,,,,,,,,,,,,,,,0.0-4.0-0.0,,,,,14227,dark,,,22924,,instructions_pt1,4,instructions,"[{'page_index': 0, 'viewing_time': 4258}, {'page_index': 1, 'viewing_time': 2370}, {'page_index': 2, 'viewing_time': 1920}, {'page_index': 3, 'viewing_time': 2719}, {'page_index': 4, 'viewing_time': 2960}]",
749,color_on,True,,,,,,j,,,,,,,,,0.0-4.0-1.0-0.0,,,,j,9285,dark,blicket_images/red_pyramid.jpg,,32226,,comprehension_quiz,5,image-keyboard-response,,
749,color_on,True,,,,,, ,,,,,,,,,0.0-4.0-1.0-1.0,,,, ,1059,dark,blicket_images/red_pyramid_on.jpg,,33287,,comprehension_quiz,6,image-keyboard-response,,
749,color_on,True,,,,,,f,,,,,,,,,0.0-4.0-1.0-2.0,,,,f,2103,dark,blicket_images/purple_prism.jpg,,35393,,comprehension_quiz,7,image-keyboard-response,,
749,color_on,True,,,,,, ,,,,,,,,,0.0-4.0-1.0-3.0,,,, ,1673,dark,blicket_images/purple_prism_off.jpg,,37067,,comprehension_quiz,8,image-keyboard-response,,
749,color_on,,,,,,,,,,,,,,,,0.0-5.0,,,,,25400,dark,,,62468,,,9,instructions,"[{'page_index': 0, 'viewing_time': 2789}, {'page_index': 1, 'viewing_time': 1760}, {'page_index': 2, 'viewing_time': 700}, {'page_index': 3, 'viewing_time': 1310}, {'page_index': 4, 'viewing_time': 559}, {'page_index': 5, 'viewing_time': 6330}, {'page_index': 6, 'viewing_time': 7231}, {'page_index': 7, 'viewing_time': 3531}, {'page_index': 8, 'viewing_time': 1190}]",
749,color_on,True,1,,,,f,off,,,,,,,blicket_images/lc.jpg,,0.0-6.0,,,,f,3784,dark,blicket_images/lc.jpg,,66254,,blicket,10,image-keyboard-response,,
749,color_on,,,,,,,,,,,,,,blicket_images/lc.jpg,,0.0-7.0,,,, ,17196,dark,blicket_images/lc_off.jpg,,211403,,feedback,11,image-keyboard-response,,
749,color_on,True,1,,,,j,on,,,,,,,blicket_images/ds.jpg,,0.0-8.0,,,,j,4215,dark,blicket_images/ds.jpg,,215620,,blicket,12,image-keyboard-response,,
749,color_on,True,1,,,blicket_images/ds.jpg,,ds,,,,,,,,blicket_images/ds.jpg,0.0-9.0,,,,ds,4179,dark,"Which of these options shows the image from the last trial, that you just saw?",,219809,,pop_quiz,13,html-button-response,,
749,color_on,True,1,,,,,"['dc', 'ds']",,,,,,,,,0.0-10.0,,[0],,"['dc', 'ds']",10094,dark,,,229910,,rule_question,14,survey-multi-select,,
749,color_on,,,,,,,,,,,,,,,,0.0-11.0,,,,0,4186,dark,"<p>Thank you for participating!</p>You answered 2 out of 2 trials correctly, and will recieve a 5 cent bonus.<p>Now you will complete a short survey before finishing the experiment.</p>",,234099,,,15,html-button-response,,
749,color_on,,,25,0.05,,,,Non-Hispanic,,,,,Male,,,0.0-12.0,1,,White,"{'age': '25', 'race': 'White', 'gender': 'Male', 'feedback': '', 'ethnicity': 'Non-Hispanic', 'other_race': '', 'other_gender': ''}",11470,dark,,,245572,,exit_survey,16,survey-html-form,,
745,color_on,,,,,,,,,[],[],[],,,,,0.0-0.0,,,,,,light,,True,98,False,,0,preload,,
745,color_on,,,,,,,,,[],[],[],,,,,0.0-1.0,,,,,,light,,True,192,False,,1,preload,,
745,color_on,,,,,,,,,,,,,,,,0.0-2.0,,,,,,light,,True,4005,,,2,fullscreen,,
745,color_on,,,,,,,,,,,,,,,,0.0-3.0,,,,0,4586,light,"<p><b>Consent Form</b></p> <div style=""text-align:left;background-color:lightblue; padding:20px; max-width:900px;""><p><b>Description:</b> Welcome! You are invited to participate in a research study in cognitive psychology. You will be asked to perform various tasks on a computer which may include: looking at images or videos, listening to sounds, reading scenarios, or playing games. You may be asked a number of different questions about making judgments and intepreting people's actions. All information collected will remain confidential. </p> <p> <b>Risks and benefits:</b> Risks involved in this study are the same as those normally associated with using a computer (e.g., mild eye/arm strain). If you have any pre- existing conditions that might make reading and completing a computer-based survey strenuous for you, you should probably elect to not participate in this study. If at any time during the study you feel unable to participate because you are experiencing strain, you may end your participation without penalty. We cannot and do not guarantee or promise that you will receive any benefits from this study. Your decision whether or not to participate in this study will not affect your employment, medical care, and/or grades in school. </p><p><b>Time involvement:</b> Your participation in this experiment will take  5 minutes. </p><p><b> Payment:</b> If recruitment materials indicate payment (e.g., Prolific or other recruitment), you will receive compensation as indicated. </p><p><b>Subject's rights:</b> If you have read this notice and have decided to participate in this project, please understand your participation is voluntary and you have the right to withdraw your consent or discontinue participation at any time without penalty or loss of benefits to which you are otherwise entitled. You have the right to refuse to answer particular questions. Your individual privacy will be maintained in all published and written data resulting from the study. </p><p><b>Contact information:</b> If you have any questions, concerns or complaints about this research study, its procedures, or risks and benefits, you should ask the Protocol Director, (Professor Tobias Gerstenberg, Phone: (650) 725-2431; Email: gerstenberg@stanford.edu). </p><p><b>Independent contact:</b> If you are not satisfied with how this study is being conducted, or if you have any concerns, complaints, or general questions about the research or your rights as a participant, please contact the Stanford Institutional Review Board (IRB) to speak to someone independent of the research team via email at irb2-manager@lists.stanford.edu, or via phone at (650) 723-2480 or toll free at 1-866-680-2906. You can also write to the Stanford IRB, Stanford University, 3000 El Camino Real, Five Palo Alto Square, 4th Floor, Palo Alto, CA 94306. </p><p>You may want to print a copy of this consent form to keep. By clicking the button below, you acknowledge that you have read the above information, that you are 18 years of age, or older and give your consent to participate in our internet-based study and consent for us to analyze the resulting data. </p> </div><p> Do you agree with the terms of the experiment as explained above? </p>",,8594,,,3,html-button-response,,
745,color_on,,,,,,,,,,,,,,,,0.0-4.0-0.0,,,,,28092,light,,,36688,,instructions_pt1,4,instructions,"[{'page_index': 0, 'viewing_time': 2152}, {'page_index': 1, 'viewing_time': 5216}, {'page_index': 2, 'viewing_time': 5128}, {'page_index': 3, 'viewing_time': 13078}, {'page_index': 4, 'viewing_time': 2517}]",
745,color_on,False,,,,,,j,,,,,,,,,0.0-4.0-1.0-0.0,,,,f,7380,light,blicket_images/red_pyramid.jpg,,44086,,comprehension_quiz,5,image-keyboard-response,,
745,color_on,True,,,,,, ,,,,,,,,,0.0-4.0-1.0-1.0,,,, ,2343,light,blicket_images/red_pyramid_on.jpg,,46431,,comprehension_quiz,6,image-keyboard-response,,
745,color_on,False,,,,,,f,,,,,,,,,0.0-4.0-1.0-2.0,,,,j,3756,light,blicket_images/purple_prism.jpg,,50189,,comprehension_quiz,7,image-keyboard-response,,
745,color_on,True,,,,,, ,,,,,,,,,0.0-4.0-1.0-3.0,,,, ,1184,light,blicket_images/purple_prism_off.jpg,,51375,,comprehension_quiz,8,image-keyboard-response,,
745,color_on,False,,,,,,,,,,,,,,,0.0-4.0-2.0-0.0,,,,0,2922,light,<p> Oops! You have answered one or more questions incorrectly.</p><p> Please Review the instructions again before continuing with the experiment </p>,,54299,,fail_message,9,html-button-response,,
745,color_on,,,,,,,,,,,,,,,,0.0-4.1-0.1,,,,,11539,light,,,65840,,instructions_pt1,10,instructions,"[{'page_index': 0, 'viewing_time': 1392}, {'page_index': 1, 'viewing_time': 1516}, {'page_index': 2, 'viewing_time': 2016}, {'page_index': 3, 'viewing_time': 1908}, {'page_index': 4, 'viewing_time': 4707}]",
745,color_on,True,,,,,,j,,,,,,,,,0.0-4.1-1.1-0.1,,,,j,6415,light,blicket_images/red_pyramid.jpg,,72256,,comprehension_quiz,11,image-keyboard-response,,
745,color_on,True,,,,,, ,,,,,,,,,0.0-4.1-1.1-1.1,,,, ,1106,light,blicket_images/red_pyramid_on.jpg,,73364,,comprehension_quiz,12,image-keyboard-response,,
745,color_on,True,,,,,,f,,,,,,,,,0.0-4.1-1.1-2.1,,,,f,6029,light,blicket_images/purple_prism.jpg,,79395,,comprehension_quiz,13,image-keyboard-response,,
745,color_on,True,,,,,, ,,,,,,,,,0.0-4.1-1.1-3.1,,,, ,963,light,blicket_images/purple_prism_off.jpg,,80360,,comprehension_quiz,14,image-keyboard-response,,
745,color_on,,,,,,,,,,,,,,,,0.0-5.0,,,,,28553,light,,,108913,,,15,instructions,"[{'page_index': 0, 'viewing_time': 2331}, {'page_index': 1, 'viewing_time': 1835}, {'page_index': 2, 'viewing_time': 1066}, {'page_index': 3, 'viewing_time': 1407}, {'page_index': 4, 'viewing_time': 1102}, {'page_index': 5, 'viewing_time': 6746}, {'page_index': 6, 'viewing_time': 6441}, {'page_index': 7, 'viewing_time': 6434}, {'page_index': 8, 'viewing_time': 1190}]",
745,color_on,False,0,,,,f,off,,,,,,,blicket_images/ds.jpg,,0.0-6.0,,,,j,2919,light,blicket_images/ds.jpg,,111834,,blicket,16,image-keyboard-response,,
745,color_on,,,,,,,,,,,,,,blicket_images/ds.jpg,,0.0-7.0,,,, ,883,light,blicket_images/ds_off.jpg,,112721,,feedback,17,image-keyboard-response,,
745,color_on,True,1,,,,j,on,,,,,,,blicket_images/ls.jpg,,0.0-8.0,,,,j,3214,light,blicket_images/ls.jpg,,115937,,blicket,18,image-keyboard-response,,
745,color_on,True,1,,,blicket_images/ls.jpg,,ls,,,,,,,,blicket_images/ls.jpg,0.0-9.0,,,,ls,5508,light,"Which of these options shows the image from the last trial, that you just saw?",,121451,,pop_quiz,19,html-button-response,,
745,color_on,False,0,,,,,"['lc', 'ls']",,,,,,,,,0.0-10.0,,[0],,['ls'],4134,light,,,125593,,rule_question,20,survey-multi-select,,
745,color_on,,,,,,,,,,,,,,,,0.0-11.0,,,,0,3245,light,"<p>Thank you for participating!</p>You answered 1 out of 2 trials correctly, and will recieve a 3 cent bonus.<p>Now you will complete a short survey before finishing the experiment.</p>",,128842,,,21,html-button-response,,
745,color_on,,,40,0.025,,,,Non-Hispanic,,,,the instructions,Female,,,0.0-12.0,0.5,,White,"{'age': '40', 'race': 'White', 'gender': 'Female', 'feedback': 'the instructions', 'ethnicity': 'Non-Hispanic', 'other_race': '', 'other_gender': ''}",14927,light,,,143772,,exit_survey,22,survey-html-form,,
799,color_on,,,,,,,,,[],[],[],,,,,0.0-0.0,,,,,,dark,,True,98,False,,0,preload,,
799,color_on,,,,,,,,,[],[],[],,,,,0.0-1.0,,,,,,dark,,True,182,False,,1,preload,,
799,color_on,,,,,,,,,,,,,,,,0.0-2.0,,,,,,dark,,True,4596,,,2,fullscreen,,
799,color_on,,,,,,,,,,,,,,,,0.0-3.0,,,,0,4508,dark,"<p><b>Consent Form</b></p> <div style=""text-align:left;background-color:lightblue; padding:20px; max-width:900px;""><p><b>Description:</b> Welcome! You are invited to participate in a research study in cognitive psychology. You will be asked to perform various tasks on a computer which may include: looking at images or videos, listening to sounds, reading scenarios, or playing games. You may be asked a number of different questions about making judgments and intepreting people's actions. All information collected will remain confidential. </p> <p> <b>Risks and benefits:</b> Risks involved in this study are the same as those normally associated with using a computer (e.g., mild eye/arm strain). If you have any pre- existing conditions that might make reading and completing a computer-based survey strenuous for you, you should probably elect to not participate in this study. If at any time during the study you feel unable to participate because you are experiencing strain, you may end your participation without penalty. We cannot and do not guarantee or promise that you will receive any benefits from this study. Your decision whether or not to participate in this study will not affect your employment, medical care, and/or grades in school. </p><p><b>Time involvement:</b> Your participation in this experiment will take  5 minutes. </p><p><b> Payment:</b> If recruitment materials indicate payment (e.g., Prolific or other recruitment), you will receive compensation as indicated. </p><p><b>Subject's rights:</b> If you have read this notice and have decided to participate in this project, please understand your participation is voluntary and you have the right to withdraw your consent or discontinue participation at any time without penalty or loss of benefits to which you are otherwise entitled. You have the right to refuse to answer particular questions. Your individual privacy will be maintained in all published and written data resulting from the study. </p><p><b>Contact information:</b> If you have any questions, concerns or complaints about this research study, its procedures, or risks and benefits, you should ask the Protocol Director, (Professor Tobias Gerstenberg, Phone: (650) 725-2431; Email: gerstenberg@stanford.edu). </p><p><b>Independent contact:</b> If you are not satisfied with how this study is being conducted, or if you have any concerns, complaints, or general questions about the research or your rights as a participant, please contact the Stanford Institutional Review Board (IRB) to speak to someone independent of the research team via email at irb2-manager@lists.stanford.edu, or via phone at (650) 723-2480 or toll free at 1-866-680-2906. You can also write to the Stanford IRB, Stanford University, 3000 El Camino Real, Five Palo Alto Square, 4th Floor, Palo Alto, CA 94306. </p><p>You may want to print a copy of this consent form to keep. By clicking the button below, you acknowledge that you have read the above information, that you are 18 years of age, or older and give your consent to participate in our internet-based study and consent for us to analyze the resulting data. </p> </div><p> Do you agree with the terms of the experiment as explained above? </p>",,9108,,,3,html-button-response,,
799,color_on,,,,,,,,,,,,,,,,0.0-4.0-0.0,,,,,15116,dark,,,24229,,instructions_pt1,4,instructions,"[{'page_index': 0, 'viewing_time': 2629}, {'page_index': 1, 'viewing_time': 3077}, {'page_index': 2, 'viewing_time': 2344}, {'page_index': 3, 'viewing_time': 4681}, {'page_index': 4, 'viewing_time': 2384}]",
799,color_on,True,,,,,,j,,,,,,,,,0.0-4.0-1.0-0.0,,,,j,9072,dark,blicket_images/red_pyramid.jpg,,33316,,comprehension_quiz,5,image-keyboard-response,,
799,color_on,True,,,,,, ,,,,,,,,,0.0-4.0-1.0-1.0,,,, ,1521,dark,blicket_images/red_pyramid_on.jpg,,34844,,comprehension_quiz,6,image-keyboard-response,,
799,color_on,False,,,,,,f,,,,,,,,,0.0-4.0-1.0-2.0,,,,j,8642,dark,blicket_images/purple_prism.jpg,,43498,,comprehension_quiz,7,image-keyboard-response,,
799,color_on,True,,,,,, ,,,,,,,,,0.0-4.0-1.0-3.0,,,, ,1144,dark,blicket_images/purple_prism_off.jpg,,44650,,comprehension_quiz,8,image-keyboard-response,,
799,color_on,False,,,,,,,,,,,,,,,0.0-4.0-2.0-0.0,,,,0,2422,dark,<p> Oops! You have answered one or more questions incorrectly.</p><p> Please Review the instructions again before continuing with the experiment </p>,,47074,,fail_message,9,html-button-response,,
799,color_on,,,,,,,,,,,,,,,,0.0-4.1-0.1,,,,,10659,dark,,,57736,,instructions_pt1,10,instructions,"[{'page_index': 0, 'viewing_time': 1921}, {'page_index': 1, 'viewing_time': 2460}, {'page_index': 2, 'viewing_time': 1655}, {'page_index': 3, 'viewing_time': 2767}, {'page_index': 4, 'viewing_time': 1856}]",
799,color_on,True,,,,,,j,,,,,,,,,0.0-4.1-1.1-0.1,,,,j,3851,dark,blicket_images/red_pyramid.jpg,,61590,,comprehension_quiz,11,image-keyboard-response,,
799,color_on,True,,,,,, ,,,,,,,,,0.0-4.1-1.1-1.1,,,, ,1556,dark,blicket_images/red_pyramid_on.jpg,,63151,,comprehension_quiz,12,image-keyboard-response,,
799,color_on,True,,,,,,f,,,,,,,,,0.0-4.1-1.1-2.1,,,,f,1230,dark,blicket_images/purple_prism.jpg,,64388,,comprehension_quiz,13,image-keyboard-response,,
799,color_on,True,,,,,, ,,,,,,,,,0.0-4.1-1.1-3.1,,,, ,976,dark,blicket_images/purple_prism_off.jpg,,65369,,comprehension_quiz,14,image-keyboard-response,,
799,color_on,,,,,,,,,,,,,,,,0.0-5.0,,,,,32456,dark,,,97827,,,15,instructions,"[{'page_index': 0, 'viewing_time': 2467}, {'page_index': 1, 'viewing_time': 1918}, {'page_index': 2, 'viewing_time': 1140}, {'page_index': 3, 'viewing_time': 1588}, {'page_index': 4, 'viewing_time': 843}, {'page_index': 5, 'viewing_time': 6653}, {'page_index': 6, 'viewing_time': 12646}, {'page_index': 7, 'viewing_time': 3666}, {'page_index': 8, 'viewing_time': 1535}]",
799,color_on,False,0,,,,f,off,,,,,,,blicket_images/lc.jpg,,0.0-6.0,,,,j,5437,dark,blicket_images/lc.jpg,,103276,,blicket,16,image-keyboard-response,,
799,color_on,,,,,,,,,,,,,,blicket_images/lc.jpg,,0.0-7.0,,,, ,962,dark,blicket_images/lc_off.jpg,,104246,,feedback,17,image-keyboard-response,,
799,color_on,True,1,,,,j,on,,,,,,,blicket_images/ds.jpg,,0.0-8.0,,,,j,4223,dark,blicket_images/ds.jpg,,108477,,blicket,18,image-keyboard-response,,
799,color_on,True,1,,,blicket_images/ds.jpg,,ds,,,,,,,,blicket_images/ds.jpg,0.0-9.0,,,,ds,3109,dark,"Which of these options shows the image from the last trial, that you just saw?",,111616,,pop_quiz,19,html-button-response,,
799,color_on,False,0,,,,,"['dc', 'ds']",,,,,,,,,0.0-10.0,,[0],,['ds'],7292,dark,,,118916,,rule_question,20,survey-multi-select,,
799,color_on,,,,,,,,,,,,,,,,0.0-11.0,,,,0,2041,dark,"<p>Thank you for participating!</p>You answered 1 out of 2 trials correctly, and will recieve a 3 cent bonus.<p>Now you will complete a short survey before finishing the experiment.</p>",,120961,,,21,html-button-response,,
799,color_on,,,43,0.025,,,,Non-Hispanic,,,,Interesting,Female,,,0.0-12.0,0.5,,,"{'age': '43', 'gender': 'Female', 'feedback': 'Interesting', 'ethnicity': 'Non-Hispanic', 'other_race': '', 'other_gender': ''}",13295,dark,,,134265,,exit_survey,22,survey-html-form,,
840,color_on,,,,,,,,,[],[],[],,,,,0.0-0.0,,,,,,light,,True,64,False,,0,preload,,
840,color_on,,,,,,,,,[],[],[],,,,,0.0-1.0,,,,,,light,,True,142,False,,1,preload,,
840,color_on,,,,,,,,,,,,,,,,0.0-2.0,,,,,,light,,True,7059,,,2,fullscreen,,
840,color_on,,,,,,,,,,,,,,,,0.0-3.0,,,,0,1560,light,"<p><b>Consent Form</b></p> <div style=""text-align:left;background-color:lightblue; padding:20px; max-width:900px;""><p><b>Description:</b> Welcome! You are invited to participate in a research study in cognitive psychology. You will be asked to perform various tasks on a computer which may include: looking at images or videos, listening to sounds, reading scenarios, or playing games. You may be asked a number of different questions about making judgments and intepreting people's actions. All information collected will remain confidential. </p> <p> <b>Risks and benefits:</b> Risks involved in this study are the same as those normally associated with using a computer (e.g., mild eye/arm strain). If you have any pre- existing conditions that might make reading and completing a computer-based survey strenuous for you, you should probably elect to not participate in this study. If at any time during the study you feel unable to participate because you are experiencing strain, you may end your participation without penalty. We cannot and do not guarantee or promise that you will receive any benefits from this study. Your decision whether or not to participate in this study will not affect your employment, medical care, and/or grades in school. </p><p><b>Time involvement:</b> Your participation in this experiment will take  5 minutes. </p><p><b> Payment:</b> If recruitment materials indicate payment (e.g., Prolific or other recruitment), you will receive compensation as indicated. </p><p><b>Subject's rights:</b> If you have read this notice and have decided to participate in this project, please understand your participation is voluntary and you have the right to withdraw your consent or discontinue participation at any time without penalty or loss of benefits to which you are otherwise entitled. You have the right to refuse to answer particular questions. Your individual privacy will be maintained in all published and written data resulting from the study. </p><p><b>Contact information:</b> If you have any questions, concerns or complaints about this research study, its procedures, or risks and benefits, you should ask the Protocol Director, (Professor Tobias Gerstenberg, Phone: (650) 725-2431; Email: gerstenberg@stanford.edu). </p><p><b>Independent contact:</b> If you are not satisfied with how this study is being conducted, or if you have any concerns, complaints, or general questions about the research or your rights as a participant, please contact the Stanford Institutional Review Board (IRB) to speak to someone independent of the research team via email at irb2-manager@lists.stanford.edu, or via phone at (650) 723-2480 or toll free at 1-866-680-2906. You can also write to the Stanford IRB, Stanford University, 3000 El Camino Real, Five Palo Alto Square, 4th Floor, Palo Alto, CA 94306. </p><p>You may want to print a copy of this consent form to keep. By clicking the button below, you acknowledge that you have read the above information, that you are 18 years of age, or older and give your consent to participate in our internet-based study and consent for us to analyze the resulting data. </p> </div><p> Do you agree with the terms of the experiment as explained above? </p>",,8621,,,3,html-button-response,,
840,color_on,,,,,,,,,,,,,,,,0.0-4.0-0.0,,,,,10185,light,,,18806,,instructions_pt1,4,instructions,"[{'page_index': 0, 'viewing_time': 2292}, {'page_index': 1, 'viewing_time': 1567}, {'page_index': 2, 'viewing_time': 1863}, {'page_index': 3, 'viewing_time': 2518}, {'page_index': 4, 'viewing_time': 1945}]",
840,color_on,True,,,,,,j,,,,,,,,,0.0-4.0-1.0-0.0,,,,j,6798,light,blicket_images/red_pyramid.jpg,,25609,,comprehension_quiz,5,image-keyboard-response,,
840,color_on,True,,,,,, ,,,,,,,,,0.0-4.0-1.0-1.0,,,, ,1048,light,blicket_images/red_pyramid_on.jpg,,26658,,comprehension_quiz,6,image-keyboard-response,,
840,color_on,True,,,,,,f,,,,,,,,,0.0-4.0-1.0-2.0,,,,f,2365,light,blicket_images/purple_prism.jpg,,29023,,comprehension_quiz,7,image-keyboard-response,,
840,color_on,True,,,,,, ,,,,,,,,,0.0-4.0-1.0-3.0,,,, ,822,light,blicket_images/purple_prism_off.jpg,,29845,,comprehension_quiz,8,image-keyboard-response,,
840,color_on,,,,,,,,,,,,,,,,0.0-5.0,,,,,27878,light,,,57724,,,9,instructions,"[{'page_index': 0, 'viewing_time': 2950}, {'page_index': 1, 'viewing_time': 1045}, {'page_index': 2, 'viewing_time': 432}, {'page_index': 3, 'viewing_time': 873}, {'page_index': 4, 'viewing_time': 465}, {'page_index': 5, 'viewing_time': 14813}, {'page_index': 6, 'viewing_time': 3281}, {'page_index': 7, 'viewing_time': 3292}, {'page_index': 8, 'viewing_time': 727}]",
840,color_on,True,1,,,,j,on,,,,,,,blicket_images/ls.jpg,,0.0-6.0,,,,j,3891,light,blicket_images/ls.jpg,,61616,,blicket,10,image-keyboard-response,,
840,color_on,,,,,,,,,,,,,,blicket_images/ls.jpg,,0.0-7.0,,,, ,1427,light,blicket_images/ls_on.jpg,,63043,,feedback,11,image-keyboard-response,,
840,color_on,False,0,,,,j,on,,,,,,,blicket_images/lc.jpg,,0.0-8.0,,,,f,1122,light,blicket_images/lc.jpg,,64166,,blicket,12,image-keyboard-response,,
840,color_on,False,0,,,blicket_images/lc.jpg,,lc,,,,,,,,blicket_images/ls.jpg,0.0-9.0,,,,ls,3154,light,"Which of these options shows the image from the last trial, that you just saw?",,67321,,pop_quiz,13,html-button-response,,
840,color_on,False,0,,,,,"['lc', 'ls']",,,,,,,,,0.0-10.0,,[0],,['ls'],2626,light,,,69949,,rule_question,14,survey-multi-select,,
840,color_on,,,,,,,,,,,,,,,,0.0-11.0,,,,0,3437,light,"<p>Thank you for participating!</p>You answered 1 out of 2 trials correctly, and will recieve a 3 cent bonus.<p>Now you will complete a short survey before finishing the experiment.</p>",,73386,,,15,html-button-response,,
840,color_on,,,31,0.025,,,,Non-Hispanic,,,,,Male,,,0.0-12.0,0.5,,White,"{'age': '31', 'race': 'White', 'gender': 'Male', 'feedback': '', 'ethnicity': 'Non-Hispanic', 'other_race': '', 'other_gender': ''}",6254,light,,,79641,,exit_survey,16,survey-html-form,,
851,color_on,,,,,,,,,[],[],[],,,,,0.0-0.0,,,,,,dark,,True,165,False,,0,preload,,
851,color_on,,,,,,,,,[],[],[],,,,,0.0-1.0,,,,,,dark,,True,317,False,,1,preload,,
851,color_on,,,,,,,,,,,,,,,,0.0-2.0,,,,,,dark,,True,3509,,,2,fullscreen,,
851,color_on,,,,,,,,,,,,,,,,0.0-3.0,,,,0,3405,dark,"<p><b>Consent Form</b></p> <div style=""text-align:left;background-color:lightblue; padding:20px; max-width:900px;""><p><b>Description:</b> Welcome! You are invited to participate in a research study in cognitive psychology. You will be asked to perform various tasks on a computer which may include: looking at images or videos, listening to sounds, reading scenarios, or playing games. You may be asked a number of different questions about making judgments and intepreting people's actions. All information collected will remain confidential. </p> <p> <b>Risks and benefits:</b> Risks involved in this study are the same as those normally associated with using a computer (e.g., mild eye/arm strain). If you have any pre- existing conditions that might make reading and completing a computer-based survey strenuous for you, you should probably elect to not participate in this study. If at any time during the study you feel unable to participate because you are experiencing strain, you may end your participation without penalty. We cannot and do not guarantee or promise that you will receive any benefits from this study. Your decision whether or not to participate in this study will not affect your employment, medical care, and/or grades in school. </p><p><b>Time involvement:</b> Your participation in this experiment will take  5 minutes. </p><p><b> Payment:</b> If recruitment materials indicate payment (e.g., Prolific or other recruitment), you will receive compensation as indicated. </p><p><b>Subject's rights:</b> If you have read this notice and have decided to participate in this project, please understand your participation is voluntary and you have the right to withdraw your consent or discontinue participation at any time without penalty or loss of benefits to which you are otherwise entitled. You have the right to refuse to answer particular questions. Your individual privacy will be maintained in all published and written data resulting from the study. </p><p><b>Contact information:</b> If you have any questions, concerns or complaints about this research study, its procedures, or risks and benefits, you should ask the Protocol Director, (Professor Tobias Gerstenberg, Phone: (650) 725-2431; Email: gerstenberg@stanford.edu). </p><p><b>Independent contact:</b> If you are not satisfied with how this study is being conducted, or if you have any concerns, complaints, or general questions about the research or your rights as a participant, please contact the Stanford Institutional Review Board (IRB) to speak to someone independent of the research team via email at irb2-manager@lists.stanford.edu, or via phone at (650) 723-2480 or toll free at 1-866-680-2906. You can also write to the Stanford IRB, Stanford University, 3000 El Camino Real, Five Palo Alto Square, 4th Floor, Palo Alto, CA 94306. </p><p>You may want to print a copy of this consent form to keep. By clicking the button below, you acknowledge that you have read the above information, that you are 18 years of age, or older and give your consent to participate in our internet-based study and consent for us to analyze the resulting data. </p> </div><p> Do you agree with the terms of the experiment as explained above? </p>",,6920,,,3,html-button-response,,
851,color_on,,,,,,,,,,,,,,,,0.0-4.0-0.0,,,,,22651,dark,,,29574,,instructions_pt1,4,instructions,"[{'page_index': 0, 'viewing_time': 3068}, {'page_index': 1, 'viewing_time': 7080}, {'page_index': 2, 'viewing_time': 3859}, {'page_index': 3, 'viewing_time': 6642}, {'page_index': 4, 'viewing_time': 1999}]",
851,color_on,True,,,,,,j,,,,,,,,,0.0-4.0-1.0-0.0,,,,j,9185,dark,blicket_images/red_pyramid.jpg,,38789,,comprehension_quiz,5,image-keyboard-response,,
851,color_on,True,,,,,, ,,,,,,,,,0.0-4.0-1.0-1.0,,,, ,1720,dark,blicket_images/red_pyramid_on.jpg,,40511,,comprehension_quiz,6,image-keyboard-response,,
851,color_on,True,,,,,,f,,,,,,,,,0.0-4.0-1.0-2.0,,,,f,3260,dark,blicket_images/purple_prism.jpg,,43774,,comprehension_quiz,7,image-keyboard-response,,
851,color_on,True,,,,,, ,,,,,,,,,0.0-4.0-1.0-3.0,,,, ,1284,dark,blicket_images/purple_prism_off.jpg,,45062,,comprehension_quiz,8,image-keyboard-response,,
851,color_on,,,,,,,,,,,,,,,,0.0-5.0,,,,,40022,dark,,,85088,,,9,instructions,"[{'page_index': 0, 'viewing_time': 6920}, {'page_index': 1, 'viewing_time': 2385}, {'page_index': 2, 'viewing_time': 1124}, {'page_index': 3, 'viewing_time': 1723}, {'page_index': 4, 'viewing_time': 1199}, {'page_index': 5, 'viewing_time': 7704}, {'page_index': 6, 'viewing_time': 14709}, {'page_index': 7, 'viewing_time': 3133}, {'page_index': 8, 'viewing_time': 1125}]",
851,color_on,False,0,,,,f,off,,,,,,,blicket_images/lc.jpg,,0.0-6.0,,,,j,4989,dark,blicket_images/lc.jpg,,90081,,blicket,10,image-keyboard-response,,
851,color_on,,,,,,,,,,,,,,blicket_images/lc.jpg,,0.0-7.0,,,, ,7197,dark,blicket_images/lc_off.jpg,,97284,,feedback,11,image-keyboard-response,,
851,color_on,True,1,,,,j,on,,,,,,,blicket_images/ds.jpg,,0.0-8.0,,,,j,1124,dark,blicket_images/ds.jpg,,98412,,blicket,12,image-keyboard-response,,
851,color_on,True,1,,,blicket_images/ds.jpg,,ds,,,,,,,,blicket_images/ds.jpg,0.0-9.0,,,,ds,3978,dark,"Which of these options shows the image from the last trial, that you just saw?",,102394,,pop_quiz,13,html-button-response,,
851,color_on,False,0,,,,,"['dc', 'ds']",,,,,,,,,0.0-10.0,,[0],,['ds'],5401,dark,,,107815,,rule_question,14,survey-multi-select,,
851,color_on,,,,,,,,,,,,,,,,0.0-11.0,,,,0,3522,dark,"<p>Thank you for participating!</p>You answered 1 out of 2 trials correctly, and will recieve a 3 cent bonus.<p>Now you will complete a short survey before finishing the experiment.</p>",,111346,,,15,html-button-response,,
851,color_on,,,24,0.025,,,,Non-Hispanic,,,,I assumed that the second object would be a Blicket since the first one wasn't.,Female,,,0.0-12.0,0.5,,Black/African American,"{'age': '24', 'race': 'Black/African American', 'gender': 'Female', 'feedback': ""I assumed that the second object would be a Blicket since the first one wasn't."", 'ethnicity': 'Non-Hispanic', 'other_race': '', 'other_gender': ''}",35748,dark,,,147100,,exit_survey,16,survey-html-form,,
848,color_on,,,,,,,,,[],[],[],,,,,0.0-0.0,,,,,,light,,True,91,False,,0,preload,,
848,color_on,,,,,,,,,[],[],[],,,,,0.0-1.0,,,,,,light,,True,169,False,,1,preload,,
848,color_on,,,,,,,,,,,,,,,,0.0-2.0,,,,,,light,,True,6025,,,2,fullscreen,,
848,color_on,,,,,,,,,,,,,,,,0.0-3.0,,,,0,2766,light,"<p><b>Consent Form</b></p> <div style=""text-align:left;background-color:lightblue; padding:20px; max-width:900px;""><p><b>Description:</b> Welcome! You are invited to participate in a research study in cognitive psychology. You will be asked to perform various tasks on a computer which may include: looking at images or videos, listening to sounds, reading scenarios, or playing games. You may be asked a number of different questions about making judgments and intepreting people's actions. All information collected will remain confidential. </p> <p> <b>Risks and benefits:</b> Risks involved in this study are the same as those normally associated with using a computer (e.g., mild eye/arm strain). If you have any pre- existing conditions that might make reading and completing a computer-based survey strenuous for you, you should probably elect to not participate in this study. If at any time during the study you feel unable to participate because you are experiencing strain, you may end your participation without penalty. We cannot and do not guarantee or promise that you will receive any benefits from this study. Your decision whether or not to participate in this study will not affect your employment, medical care, and/or grades in school. </p><p><b>Time involvement:</b> Your participation in this experiment will take  5 minutes. </p><p><b> Payment:</b> If recruitment materials indicate payment (e.g., Prolific or other recruitment), you will receive compensation as indicated. </p><p><b>Subject's rights:</b> If you have read this notice and have decided to participate in this project, please understand your participation is voluntary and you have the right to withdraw your consent or discontinue participation at any time without penalty or loss of benefits to which you are otherwise entitled. You have the right to refuse to answer particular questions. Your individual privacy will be maintained in all published and written data resulting from the study. </p><p><b>Contact information:</b> If you have any questions, concerns or complaints about this research study, its procedures, or risks and benefits, you should ask the Protocol Director, (Professor Tobias Gerstenberg, Phone: (650) 725-2431; Email: gerstenberg@stanford.edu). </p><p><b>Independent contact:</b> If you are not satisfied with how this study is being conducted, or if you have any concerns, complaints, or general questions about the research or your rights as a participant, please contact the Stanford Institutional Review Board (IRB) to speak to someone independent of the research team via email at irb2-manager@lists.stanford.edu, or via phone at (650) 723-2480 or toll free at 1-866-680-2906. You can also write to the Stanford IRB, Stanford University, 3000 El Camino Real, Five Palo Alto Square, 4th Floor, Palo Alto, CA 94306. </p><p>You may want to print a copy of this consent form to keep. By clicking the button below, you acknowledge that you have read the above information, that you are 18 years of age, or older and give your consent to participate in our internet-based study and consent for us to analyze the resulting data. </p> </div><p> Do you agree with the terms of the experiment as explained above? </p>",,8794,,,3,html-button-response,,
848,color_on,,,,,,,,,,,,,,,,0.0-4.0-0.0,,,,,8255,light,,,17051,,instructions_pt1,4,instructions,"[{'page_index': 0, 'viewing_time': 1295}, {'page_index': 1, 'viewing_time': 2092}, {'page_index': 2, 'viewing_time': 1266}, {'page_index': 3, 'viewing_time': 2212}, {'page_index': 4, 'viewing_time': 1388}]",
848,color_on,True,,,,,,j,,,,,,,,,0.0-4.0-1.0-0.0,,,,j,8859,light,blicket_images/red_pyramid.jpg,,25930,,comprehension_quiz,5,image-keyboard-response,,
848,color_on,True,,,,,, ,,,,,,,,,0.0-4.0-1.0-1.0,,,, ,1111,light,blicket_images/red_pyramid_on.jpg,,27044,,comprehension_quiz,6,image-keyboard-response,,
848,color_on,True,,,,,,f,,,,,,,,,0.0-4.0-1.0-2.0,,,,f,2536,light,blicket_images/purple_prism.jpg,,29583,,comprehension_quiz,7,image-keyboard-response,,
848,color_on,True,,,,,, ,,,,,,,,,0.0-4.0-1.0-3.0,,,, ,841,light,blicket_images/purple_prism_off.jpg,,30427,,comprehension_quiz,8,image-keyboard-response,,
848,color_on,,,,,,,,,,,,,,,,0.0-5.0,,,,,21022,light,,,51451,,,9,instructions,"[{'page_index': 0, 'viewing_time': 2074}, {'page_index': 1, 'viewing_time': 1411}, {'page_index': 2, 'viewing_time': 753}, {'page_index': 3, 'viewing_time': 1074}, {'page_index': 4, 'viewing_time': 745}, {'page_index': 5, 'viewing_time': 4753}, {'page_index': 6, 'viewing_time': 6612}, {'page_index': 7, 'viewing_time': 2647}, {'page_index': 8, 'viewing_time': 953}]",
848,color_on,False,0,,,,f,off,,,,,,,blicket_images/dc.jpg,,0.0-6.0,,,,j,1356,light,blicket_images/dc.jpg,,52810,,blicket,10,image-keyboard-response,,
848,color_on,,,,,,,,,,,,,,blicket_images/dc.jpg,,0.0-7.0,,,, ,1037,light,blicket_images/dc_off.jpg,,53852,,feedback,11,image-keyboard-response,,
848,color_on,True,1,,,,j,on,,,,,,,blicket_images/ls.jpg,,0.0-8.0,,,,j,1127,light,blicket_images/ls.jpg,,54992,,blicket,12,image-keyboard-response,,
848,color_on,True,1,,,blicket_images/ls.jpg,,ls,,,,,,,,blicket_images/ls.jpg,0.0-9.0,,,,ls,5034,light,"Which of these options shows the image from the last trial, that you just saw?",,60030,,pop_quiz,13,html-button-response,,
848,color_on,True,1,,,,,"['lc', 'ls']",,,,,,,,,0.0-10.0,,[0],,"['lc', 'ls']",8082,light,,,68127,,rule_question,14,survey-multi-select,,
848,color_on,,,,,,,,,,,,,,,,0.0-11.0,,,,0,2918,light,"<p>Thank you for participating!</p>You answered 1 out of 2 trials correctly, and will recieve a 3 cent bonus.<p>Now you will complete a short survey before finishing the experiment.</p>",,71050,,,15,html-button-response,,
848,color_on,,,23,0.025,,,,Non-Hispanic,,,,I decided based on what I thought seemed like a blinket,Male,,,0.0-12.0,0.5,,White,"{'age': '23', 'race': 'White', 'gender': 'Male', 'feedback': 'I decided based on what I thought seemed like a blinket', 'ethnicity': 'Non-Hispanic', 'other_race': '', 'other_gender': ''}",24343,light,,,95401,,exit_survey,16,survey-html-form,,
832,color_on,,,,,,,,,[],[],[],,,,,0.0-0.0,,,,,,dark,,True,140,False,,0,preload,,
832,color_on,,,,,,,,,[],[],[],,,,,0.0-1.0,,,,,,dark,,True,216,False,,1,preload,,
832,color_on,,,,,,,,,,,,,,,,0.0-2.0,,,,,,dark,,True,3441,,,2,fullscreen,,
832,color_on,,,,,,,,,,,,,,,,0.0-3.0,,,,0,18037,dark,"<p><b>Consent Form</b></p> <div style=""text-align:left;background-color:lightblue; padding:20px; max-width:900px;""><p><b>Description:</b> Welcome! You are invited to participate in a research study in cognitive psychology. You will be asked to perform various tasks on a computer which may include: looking at images or videos, listening to sounds, reading scenarios, or playing games. You may be asked a number of different questions about making judgments and intepreting people's actions. All information collected will remain confidential. </p> <p> <b>Risks and benefits:</b> Risks involved in this study are the same as those normally associated with using a computer (e.g., mild eye/arm strain). If you have any pre- existing conditions that might make reading and completing a computer-based survey strenuous for you, you should probably elect to not participate in this study. If at any time during the study you feel unable to participate because you are experiencing strain, you may end your participation without penalty. We cannot and do not guarantee or promise that you will receive any benefits from this study. Your decision whether or not to participate in this study will not affect your employment, medical care, and/or grades in school. </p><p><b>Time involvement:</b> Your participation in this experiment will take  5 minutes. </p><p><b> Payment:</b> If recruitment materials indicate payment (e.g., Prolific or other recruitment), you will receive compensation as indicated. </p><p><b>Subject's rights:</b> If you have read this notice and have decided to participate in this project, please understand your participation is voluntary and you have the right to withdraw your consent or discontinue participation at any time without penalty or loss of benefits to which you are otherwise entitled. You have the right to refuse to answer particular questions. Your individual privacy will be maintained in all published and written data resulting from the study. </p><p><b>Contact information:</b> If you have any questions, concerns or complaints about this research study, its procedures, or risks and benefits, you should ask the Protocol Director, (Professor Tobias Gerstenberg, Phone: (650) 725-2431; Email: gerstenberg@stanford.edu). </p><p><b>Independent contact:</b> If you are not satisfied with how this study is being conducted, or if you have any concerns, complaints, or general questions about the research or your rights as a participant, please contact the Stanford Institutional Review Board (IRB) to speak to someone independent of the research team via email at irb2-manager@lists.stanford.edu, or via phone at (650) 723-2480 or toll free at 1-866-680-2906. You can also write to the Stanford IRB, Stanford University, 3000 El Camino Real, Five Palo Alto Square, 4th Floor, Palo Alto, CA 94306. </p><p>You may want to print a copy of this consent form to keep. By clicking the button below, you acknowledge that you have read the above information, that you are 18 years of age, or older and give your consent to participate in our internet-based study and consent for us to analyze the resulting data. </p> </div><p> Do you agree with the terms of the experiment as explained above? </p>",,21479,,,3,html-button-response,,
832,color_on,,,,,,,,,,,,,,,,0.0-4.0-0.0,,,,,15100,dark,,,36581,,instructions_pt1,4,instructions,"[{'page_index': 0, 'viewing_time': 2124}, {'page_index': 1, 'viewing_time': 2654}, {'page_index': 2, 'viewing_time': 2454}, {'page_index': 3, 'viewing_time': 4316}, {'page_index': 4, 'viewing_time': 3552}]",
832,color_on,True,,,,,,j,,,,,,,,,0.0-4.0-1.0-0.0,,,,j,9405,dark,blicket_images/red_pyramid.jpg,,45988,,comprehension_quiz,5,image-keyboard-response,,
832,color_on,True,,,,,, ,,,,,,,,,0.0-4.0-1.0-1.0,,,, ,1602,dark,blicket_images/red_pyramid_on.jpg,,47591,,comprehension_quiz,6,image-keyboard-response,,
832,color_on,True,,,,,,f,,,,,,,,,0.0-4.0-1.0-2.0,,,,f,5432,dark,blicket_images/purple_prism.jpg,,53024,,comprehension_quiz,7,image-keyboard-response,,
832,color_on,True,,,,,, ,,,,,,,,,0.0-4.0-1.0-3.0,,,, ,1113,dark,blicket_images/purple_prism_off.jpg,,54138,,comprehension_quiz,8,image-keyboard-response,,
832,color_on,,,,,,,,,,,,,,,,0.0-5.0,,,,,32221,dark,,,86360,,,9,instructions,"[{'page_index': 0, 'viewing_time': 3009}, {'page_index': 1, 'viewing_time': 2203}, {'page_index': 2, 'viewing_time': 1205}, {'page_index': 3, 'viewing_time': 2115}, {'page_index': 4, 'viewing_time': 722}, {'page_index': 5, 'viewing_time': 8342}, {'page_index': 6, 'viewing_time': 7322}, {'page_index': 7, 'viewing_time': 6340}, {'page_index': 8, 'viewing_time': 963}]",
832,color_on,False,0,,,,j,on,,,,,,,blicket_images/ds.jpg,,0.0-6.0,,,,f,4676,dark,blicket_images/ds.jpg,,91037,,blicket,10,image-keyboard-response,,
832,color_on,,,,,,,,,,,,,,blicket_images/ds.jpg,,0.0-7.0,,,, ,3115,dark,blicket_images/ds_on.jpg,,94154,,feedback,11,image-keyboard-response,,
832,color_on,False,0,,,,j,on,,,,,,,blicket_images/dc.jpg,,0.0-8.0,,,,f,4314,dark,blicket_images/dc.jpg,,98469,,blicket,12,image-keyboard-response,,
832,color_on,True,1,,,blicket_images/dc.jpg,,dc,,,,,,,,blicket_images/dc.jpg,0.0-9.0,,,,dc,6548,dark,"Which of these options shows the image from the last trial, that you just saw?",,105020,,pop_quiz,13,html-button-response,,
832,color_on,False,0,,,,,"['dc', 'ds']",,,,,,,,,0.0-10.0,,[0],,['ds'],10606,dark,,,115634,,rule_question,14,survey-multi-select,,
832,color_on,,,,,,,,,,,,,,,,0.0-11.0,,,,0,5587,dark,"<p>Thank you for participating!</p>You answered 0 out of 2 trials correctly, and will recieve a 0 cent bonus.<p>Now you will complete a short survey before finishing the experiment.</p>",,121223,,,15,html-button-response,,
832,color_on,,,29,0,,,,Non-Hispanic,,,,It was a guess,Non-binary,,,0.0-12.0,0,,White,"{'age': '29', 'race': 'White', 'gender': 'Non-binary', 'feedback': 'It was a guess', 'ethnicity': 'Non-Hispanic', 'other_race': '', 'other_gender': ''}",23314,dark,,,144539,,exit_survey,16,survey-html-form,,
795,color_on,,,,,,,,,[],[],[],,,,,0.0-0.0,,,,,,dark,,True,101,False,,0,preload,,
795,color_on,,,,,,,,,[],[],[],,,,,0.0-1.0,,,,,,dark,,True,194,False,,1,preload,,
795,color_on,,,,,,,,,,,,,,,,0.0-2.0,,,,,,dark,,True,4889,,,2,fullscreen,,
795,color_on,,,,,,,,,,,,,,,,0.0-3.0,,,,0,8963,dark,"<p><b>Consent Form</b></p> <div style=""text-align:left;background-color:lightblue; padding:20px; max-width:900px;""><p><b>Description:</b> Welcome! You are invited to participate in a research study in cognitive psychology. You will be asked to perform various tasks on a computer which may include: looking at images or videos, listening to sounds, reading scenarios, or playing games. You may be asked a number of different questions about making judgments and intepreting people's actions. All information collected will remain confidential. </p> <p> <b>Risks and benefits:</b> Risks involved in this study are the same as those normally associated with using a computer (e.g., mild eye/arm strain). If you have any pre- existing conditions that might make reading and completing a computer-based survey strenuous for you, you should probably elect to not participate in this study. If at any time during the study you feel unable to participate because you are experiencing strain, you may end your participation without penalty. We cannot and do not guarantee or promise that you will receive any benefits from this study. Your decision whether or not to participate in this study will not affect your employment, medical care, and/or grades in school. </p><p><b>Time involvement:</b> Your participation in this experiment will take  5 minutes. </p><p><b> Payment:</b> If recruitment materials indicate payment (e.g., Prolific or other recruitment), you will receive compensation as indicated. </p><p><b>Subject's rights:</b> If you have read this notice and have decided to participate in this project, please understand your participation is voluntary and you have the right to withdraw your consent or discontinue participation at any time without penalty or loss of benefits to which you are otherwise entitled. You have the right to refuse to answer particular questions. Your individual privacy will be maintained in all published and written data resulting from the study. </p><p><b>Contact information:</b> If you have any questions, concerns or complaints about this research study, its procedures, or risks and benefits, you should ask the Protocol Director, (Professor Tobias Gerstenberg, Phone: (650) 725-2431; Email: gerstenberg@stanford.edu). </p><p><b>Independent contact:</b> If you are not satisfied with how this study is being conducted, or if you have any concerns, complaints, or general questions about the research or your rights as a participant, please contact the Stanford Institutional Review Board (IRB) to speak to someone independent of the research team via email at irb2-manager@lists.stanford.edu, or via phone at (650) 723-2480 or toll free at 1-866-680-2906. You can also write to the Stanford IRB, Stanford University, 3000 El Camino Real, Five Palo Alto Square, 4th Floor, Palo Alto, CA 94306. </p><p>You may want to print a copy of this consent form to keep. By clicking the button below, you acknowledge that you have read the above information, that you are 18 years of age, or older and give your consent to participate in our internet-based study and consent for us to analyze the resulting data. </p> </div><p> Do you agree with the terms of the experiment as explained above? </p>",,13854,,,3,html-button-response,,
795,color_on,,,,,,,,,,,,,,,,0.0-4.0-0.0,,,,,31570,dark,,,45425,,instructions_pt1,4,instructions,"[{'page_index': 0, 'viewing_time': 4244}, {'page_index': 1, 'viewing_time': 4224}, {'page_index': 2, 'viewing_time': 4712}, {'page_index': 3, 'viewing_time': 9696}, {'page_index': 4, 'viewing_time': 8694}]",
795,color_on,True,,,,,,j,,,,,,,,,0.0-4.0-1.0-0.0,,,,j,21481,dark,blicket_images/red_pyramid.jpg,,66907,,comprehension_quiz,5,image-keyboard-response,,
795,color_on,True,,,,,, ,,,,,,,,,0.0-4.0-1.0-1.0,,,, ,3198,dark,blicket_images/red_pyramid_on.jpg,,70107,,comprehension_quiz,6,image-keyboard-response,,
795,color_on,True,,,,,,f,,,,,,,,,0.0-4.0-1.0-2.0,,,,f,4093,dark,blicket_images/purple_prism.jpg,,74202,,comprehension_quiz,7,image-keyboard-response,,
795,color_on,True,,,,,, ,,,,,,,,,0.0-4.0-1.0-3.0,,,, ,2380,dark,blicket_images/purple_prism_off.jpg,,76583,,comprehension_quiz,8,image-keyboard-response,,
795,color_on,,,,,,,,,,,,,,,,0.0-5.0,,,,,51158,dark,,,127737,,,9,instructions,"[{'page_index': 0, 'viewing_time': 9250}, {'page_index': 1, 'viewing_time': 3465}, {'page_index': 2, 'viewing_time': 1471}, {'page_index': 3, 'viewing_time': 2350}, {'page_index': 4, 'viewing_time': 1931}, {'page_index': 5, 'viewing_time': 9978}, {'page_index': 6, 'viewing_time': 16212}, {'page_index': 7, 'viewing_time': 5097}, {'page_index': 8, 'viewing_time': 1403}]",
795,color_on,True,1,,,,f,off,,,,,,,blicket_images/ls.jpg,,0.0-6.0,,,,f,7539,dark,blicket_images/ls.jpg,,135277,,blicket,10,image-keyboard-response,,
795,color_on,,,,,,,,,,,,,,blicket_images/ls.jpg,,0.0-7.0,,,, ,3052,dark,blicket_images/ls_off.jpg,,138331,,feedback,11,image-keyboard-response,,
795,color_on,True,1,,,,j,on,,,,,,,blicket_images/dc.jpg,,0.0-8.0,,,,j,3691,dark,blicket_images/dc.jpg,,142023,,blicket,12,image-keyboard-response,,
795,color_on,True,1,,,blicket_images/dc.jpg,,dc,,,,,,,,blicket_images/dc.jpg,0.0-9.0,,,,dc,7933,dark,"Which of these options shows the image from the last trial, that you just saw?",,149959,,pop_quiz,13,html-button-response,,
795,color_on,False,0,,,,,"['dc', 'ds']",,,,,,,,,0.0-10.0,,[0],,"['dc', 'lc']",10084,dark,,,160047,,rule_question,14,survey-multi-select,,
795,color_on,,,,,,,,,,,,,,,,0.0-11.0,,,,0,8747,dark,"<p>Thank you for participating!</p>You answered 2 out of 2 trials correctly, and will recieve a 5 cent bonus.<p>Now you will complete a short survey before finishing the experiment.</p>",,168796,,,15,html-button-response,,
795,color_on,,,64,0.05,,,,Non-Hispanic,,,,none,Female,,,0.0-12.0,1,,White,"{'age': '64', 'race': 'White', 'gender': 'Female', 'feedback': 'none', 'ethnicity': 'Non-Hispanic', 'other_race': '', 'other_gender': ''}",43186,dark,,,211991,,exit_survey,16,survey-html-form,,
844,color_on,,,,,,,,,[],[],[],,,,,0.0-0.0,,,,,,light,,True,494,False,,0,preload,,
844,color_on,,,,,,,,,[],[],[],,,,,0.0-1.0,,,,,,light,,True,979,False,,1,preload,,
844,color_on,,,,,,,,,,,,,,,,0.0-2.0,,,,,,light,,True,9894,,,2,fullscreen,,
844,color_on,,,,,,,,,,,,,,,,0.0-3.0,,,,0,44711,light,"<p><b>Consent Form</b></p> <div style=""text-align:left;background-color:lightblue; padding:20px; max-width:900px;""><p><b>Description:</b> Welcome! You are invited to participate in a research study in cognitive psychology. You will be asked to perform various tasks on a computer which may include: looking at images or videos, listening to sounds, reading scenarios, or playing games. You may be asked a number of different questions about making judgments and intepreting people's actions. All information collected will remain confidential. </p> <p> <b>Risks and benefits:</b> Risks involved in this study are the same as those normally associated with using a computer (e.g., mild eye/arm strain). If you have any pre- existing conditions that might make reading and completing a computer-based survey strenuous for you, you should probably elect to not participate in this study. If at any time during the study you feel unable to participate because you are experiencing strain, you may end your participation without penalty. We cannot and do not guarantee or promise that you will receive any benefits from this study. Your decision whether or not to participate in this study will not affect your employment, medical care, and/or grades in school. </p><p><b>Time involvement:</b> Your participation in this experiment will take  5 minutes. </p><p><b> Payment:</b> If recruitment materials indicate payment (e.g., Prolific or other recruitment), you will receive compensation as indicated. </p><p><b>Subject's rights:</b> If you have read this notice and have decided to participate in this project, please understand your participation is voluntary and you have the right to withdraw your consent or discontinue participation at any time without penalty or loss of benefits to which you are otherwise entitled. You have the right to refuse to answer particular questions. Your individual privacy will be maintained in all published and written data resulting from the study. </p><p><b>Contact information:</b> If you have any questions, concerns or complaints about this research study, its procedures, or risks and benefits, you should ask the Protocol Director, (Professor Tobias Gerstenberg, Phone: (650) 725-2431; Email: gerstenberg@stanford.edu). </p><p><b>Independent contact:</b> If you are not satisfied with how this study is being conducted, or if you have any concerns, complaints, or general questions about the research or your rights as a participant, please contact the Stanford Institutional Review Board (IRB) to speak to someone independent of the research team via email at irb2-manager@lists.stanford.edu, or via phone at (650) 723-2480 or toll free at 1-866-680-2906. You can also write to the Stanford IRB, Stanford University, 3000 El Camino Real, Five Palo Alto Square, 4th Floor, Palo Alto, CA 94306. </p><p>You may want to print a copy of this consent form to keep. By clicking the button below, you acknowledge that you have read the above information, that you are 18 years of age, or older and give your consent to participate in our internet-based study and consent for us to analyze the resulting data. </p> </div><p> Do you agree with the terms of the experiment as explained above? </p>",,54611,,,3,html-button-response,,
844,color_on,,,,,,,,,,,,,,,,0.0-4.0-0.0,,,,,27312,light,,,81924,,instructions_pt1,4,instructions,"[{'page_index': 0, 'viewing_time': 3545}, {'page_index': 1, 'viewing_time': 6378}, {'page_index': 2, 'viewing_time': 5418}, {'page_index': 1, 'viewing_time': 1446}, {'page_index': 2, 'viewing_time': 1569}, {'page_index': 3, 'viewing_time': 4973}, {'page_index': 4, 'viewing_time': 3980}]",
844,color_on,True,,,,,,j,,,,,,,,,0.0-4.0-1.0-0.0,,,,j,11187,light,blicket_images/red_pyramid.jpg,,93124,,comprehension_quiz,5,image-keyboard-response,,
844,color_on,True,,,,,, ,,,,,,,,,0.0-4.0-1.0-1.0,,,, ,2742,light,blicket_images/red_pyramid_on.jpg,,95868,,comprehension_quiz,6,image-keyboard-response,,
844,color_on,True,,,,,,f,,,,,,,,,0.0-4.0-1.0-2.0,,,,f,4409,light,blicket_images/purple_prism.jpg,,100281,,comprehension_quiz,7,image-keyboard-response,,
844,color_on,True,,,,,, ,,,,,,,,,0.0-4.0-1.0-3.0,,,, ,2275,light,blicket_images/purple_prism_off.jpg,,102559,,comprehension_quiz,8,image-keyboard-response,,
844,color_on,,,,,,,,,,,,,,,,0.0-5.0,,,,,43360,light,,,145922,,,9,instructions,"[{'page_index': 0, 'viewing_time': 4467}, {'page_index': 1, 'viewing_time': 2710}, {'page_index': 2, 'viewing_time': 1265}, {'page_index': 3, 'viewing_time': 1730}, {'page_index': 4, 'viewing_time': 1249}, {'page_index': 5, 'viewing_time': 7926}, {'page_index': 6, 'viewing_time': 11932}, {'page_index': 7, 'viewing_time': 10430}, {'page_index': 8, 'viewing_time': 1650}]",
844,color_on,False,0,,,,j,on,,,,,,,blicket_images/lc.jpg,,0.0-6.0,,,,f,8502,light,blicket_images/lc.jpg,,154426,,blicket,10,image-keyboard-response,,
844,color_on,,,,,,,,,,,,,,blicket_images/lc.jpg,,0.0-7.0,,,, ,2846,light,blicket_images/lc_on.jpg,,157276,,feedback,11,image-keyboard-response,,
844,color_on,True,1,,,,j,on,,,,,,,blicket_images/ls.jpg,,0.0-8.0,,,,j,3332,light,blicket_images/ls.jpg,,160610,,blicket,12,image-keyboard-response,,
844,color_on,True,1,,,blicket_images/ls.jpg,,ls,,,,,,,,blicket_images/ls.jpg,0.0-9.0,,,,ls,7369,light,"Which of these options shows the image from the last trial, that you just saw?",,167982,,pop_quiz,13,html-button-response,,
844,color_on,False,0,,,,,"['lc', 'ls']",,,,,,,,,0.0-10.0,,[0],,['lc'],10266,light,,,178257,,rule_question,14,survey-multi-select,,
844,color_on,,,,,,,,,,,,,,,,0.0-11.0,,,,0,5999,light,"<p>Thank you for participating!</p>You answered 1 out of 2 trials correctly, and will recieve a 3 cent bonus.<p>Now you will complete a short survey before finishing the experiment.</p>",,184260,,,15,html-button-response,,
844,color_on,,,20,0.025,,,,Non-Hispanic,,,,the color and shape of the face of the object,Female,,,0.0-12.0,0.5,,White,"{'age': '20', 'race': 'White', 'gender': 'Female', 'feedback': 'the color and shape of the face of the object', 'ethnicity': 'Non-Hispanic', 'other_race': '', 'other_gender': ''}",40962,light,,,225225,,exit_survey,16,survey-html-form,,
765,color_on,,,,,,,,,[],[],[],,,,,0.0-0.0,,,,,,light,,True,44,False,,0,preload,,
765,color_on,,,,,,,,,[],[],[],,,,,0.0-1.0,,,,,,light,,True,103,False,,1,preload,,
765,color_on,,,,,,,,,,,,,,,,0.0-2.0,,,,,,light,,True,3398,,,2,fullscreen,,
765,color_on,,,,,,,,,,,,,,,,0.0-3.0,,,,0,2329,light,"<p><b>Consent Form</b></p> <div style=""text-align:left;background-color:lightblue; padding:20px; max-width:900px;""><p><b>Description:</b> Welcome! You are invited to participate in a research study in cognitive psychology. You will be asked to perform various tasks on a computer which may include: looking at images or videos, listening to sounds, reading scenarios, or playing games. You may be asked a number of different questions about making judgments and intepreting people's actions. All information collected will remain confidential. </p> <p> <b>Risks and benefits:</b> Risks involved in this study are the same as those normally associated with using a computer (e.g., mild eye/arm strain). If you have any pre- existing conditions that might make reading and completing a computer-based survey strenuous for you, you should probably elect to not participate in this study. If at any time during the study you feel unable to participate because you are experiencing strain, you may end your participation without penalty. We cannot and do not guarantee or promise that you will receive any benefits from this study. Your decision whether or not to participate in this study will not affect your employment, medical care, and/or grades in school. </p><p><b>Time involvement:</b> Your participation in this experiment will take  5 minutes. </p><p><b> Payment:</b> If recruitment materials indicate payment (e.g., Prolific or other recruitment), you will receive compensation as indicated. </p><p><b>Subject's rights:</b> If you have read this notice and have decided to participate in this project, please understand your participation is voluntary and you have the right to withdraw your consent or discontinue participation at any time without penalty or loss of benefits to which you are otherwise entitled. You have the right to refuse to answer particular questions. Your individual privacy will be maintained in all published and written data resulting from the study. </p><p><b>Contact information:</b> If you have any questions, concerns or complaints about this research study, its procedures, or risks and benefits, you should ask the Protocol Director, (Professor Tobias Gerstenberg, Phone: (650) 725-2431; Email: gerstenberg@stanford.edu). </p><p><b>Independent contact:</b> If you are not satisfied with how this study is being conducted, or if you have any concerns, complaints, or general questions about the research or your rights as a participant, please contact the Stanford Institutional Review Board (IRB) to speak to someone independent of the research team via email at irb2-manager@lists.stanford.edu, or via phone at (650) 723-2480 or toll free at 1-866-680-2906. You can also write to the Stanford IRB, Stanford University, 3000 El Camino Real, Five Palo Alto Square, 4th Floor, Palo Alto, CA 94306. </p><p>You may want to print a copy of this consent form to keep. By clicking the button below, you acknowledge that you have read the above information, that you are 18 years of age, or older and give your consent to participate in our internet-based study and consent for us to analyze the resulting data. </p> </div><p> Do you agree with the terms of the experiment as explained above? </p>",,5728,,,3,html-button-response,,
765,color_on,,,,,,,,,,,,,,,,0.0-4.0-0.0,,,,,17606,light,,,23334,,instructions_pt1,4,instructions,"[{'page_index': 0, 'viewing_time': 3130}, {'page_index': 1, 'viewing_time': 4646}, {'page_index': 2, 'viewing_time': 2275}, {'page_index': 3, 'viewing_time': 4881}, {'page_index': 4, 'viewing_time': 2674}]",
765,color_on,True,,,,,,j,,,,,,,,,0.0-4.0-1.0-0.0,,,,j,12073,light,blicket_images/red_pyramid.jpg,,35413,,comprehension_quiz,5,image-keyboard-response,,
765,color_on,True,,,,,, ,,,,,,,,,0.0-4.0-1.0-1.0,,,, ,1517,light,blicket_images/red_pyramid_on.jpg,,36932,,comprehension_quiz,6,image-keyboard-response,,
765,color_on,True,,,,,,f,,,,,,,,,0.0-4.0-1.0-2.0,,,,f,8022,light,blicket_images/purple_prism.jpg,,44956,,comprehension_quiz,7,image-keyboard-response,,
765,color_on,True,,,,,, ,,,,,,,,,0.0-4.0-1.0-3.0,,,, ,990,light,blicket_images/purple_prism_off.jpg,,45948,,comprehension_quiz,8,image-keyboard-response,,
765,color_on,,,,,,,,,,,,,,,,0.0-5.0,,,,,32807,light,,,78756,,,9,instructions,"[{'page_index': 0, 'viewing_time': 6970}, {'page_index': 1, 'viewing_time': 1329}, {'page_index': 2, 'viewing_time': 772}, {'page_index': 3, 'viewing_time': 1301}, {'page_index': 4, 'viewing_time': 986}, {'page_index': 5, 'viewing_time': 8529}, {'page_index': 6, 'viewing_time': 5677}, {'page_index': 7, 'viewing_time': 4431}, {'page_index': 8, 'viewing_time': 2812}]",
765,color_on,True,1,,,,j,on,,,,,,,blicket_images/ls.jpg,,0.0-6.0,,,,j,2533,light,blicket_images/ls.jpg,,81292,,blicket,10,image-keyboard-response,,
765,color_on,,,,,,,,,,,,,,blicket_images/ls.jpg,,0.0-7.0,,,, ,1021,light,blicket_images/ls_on.jpg,,82316,,feedback,11,image-keyboard-response,,
765,color_on,True,1,,,,j,on,,,,,,,blicket_images/lc.jpg,,0.0-8.0,,,,j,1133,light,blicket_images/lc.jpg,,83452,,blicket,12,image-keyboard-response,,
765,color_on,True,1,,,blicket_images/lc.jpg,,lc,,,,,,,,blicket_images/lc.jpg,0.0-9.0,,,,lc,9431,light,"Which of these options shows the image from the last trial, that you just saw?",,92884,,pop_quiz,13,html-button-response,,
765,color_on,True,1,,,,,"['lc', 'ls']",,,,,,,,,0.0-10.0,,[0],,"['lc', 'ls']",10862,light,,,103751,,rule_question,14,survey-multi-select,,
765,color_on,,,,,,,,,,,,,,,,0.0-11.0,,,,0,5647,light,"<p>Thank you for participating!</p>You answered 2 out of 2 trials correctly, and will recieve a 5 cent bonus.<p>Now you will complete a short survey before finishing the experiment.</p>",,109400,,,15,html-button-response,,
765,color_on,,,23,0.05,,,,Non-Hispanic,,,,"I was guessing it was color, but wasn't sure",Male,,,0.0-12.0,1,,White,"{'age': '23', 'race': 'White', 'gender': 'Male', 'feedback': ""I was guessing it was color, but wasn't sure"", 'ethnicity': 'Non-Hispanic', 'other_race': '', 'other_gender': ''}",49596,light,,,158998,,exit_survey,16,survey-html-form,,
737,color_on,,,,,,,,,[],[],[],,,,,0.0-0.0,,,,,,light,,True,166,False,,0,preload,,
737,color_on,,,,,,,,,[],[],[],,,,,0.0-1.0,,,,,,light,,True,350,False,,1,preload,,
737,color_on,,,,,,,,,,,,,,,,0.0-2.0,,,,,,light,,True,4844,,,2,fullscreen,,
737,color_on,,,,,,,,,,,,,,,,0.0-3.0,,,,0,13240,light,"<p><b>Consent Form</b></p> <div style=""text-align:left;background-color:lightblue; padding:20px; max-width:900px;""><p><b>Description:</b> Welcome! You are invited to participate in a research study in cognitive psychology. You will be asked to perform various tasks on a computer which may include: looking at images or videos, listening to sounds, reading scenarios, or playing games. You may be asked a number of different questions about making judgments and intepreting people's actions. All information collected will remain confidential. </p> <p> <b>Risks and benefits:</b> Risks involved in this study are the same as those normally associated with using a computer (e.g., mild eye/arm strain). If you have any pre- existing conditions that might make reading and completing a computer-based survey strenuous for you, you should probably elect to not participate in this study. If at any time during the study you feel unable to participate because you are experiencing strain, you may end your participation without penalty. We cannot and do not guarantee or promise that you will receive any benefits from this study. Your decision whether or not to participate in this study will not affect your employment, medical care, and/or grades in school. </p><p><b>Time involvement:</b> Your participation in this experiment will take  5 minutes. </p><p><b> Payment:</b> If recruitment materials indicate payment (e.g., Prolific or other recruitment), you will receive compensation as indicated. </p><p><b>Subject's rights:</b> If you have read this notice and have decided to participate in this project, please understand your participation is voluntary and you have the right to withdraw your consent or discontinue participation at any time without penalty or loss of benefits to which you are otherwise entitled. You have the right to refuse to answer particular questions. Your individual privacy will be maintained in all published and written data resulting from the study. </p><p><b>Contact information:</b> If you have any questions, concerns or complaints about this research study, its procedures, or risks and benefits, you should ask the Protocol Director, (Professor Tobias Gerstenberg, Phone: (650) 725-2431; Email: gerstenberg@stanford.edu). </p><p><b>Independent contact:</b> If you are not satisfied with how this study is being conducted, or if you have any concerns, complaints, or general questions about the research or your rights as a participant, please contact the Stanford Institutional Review Board (IRB) to speak to someone independent of the research team via email at irb2-manager@lists.stanford.edu, or via phone at (650) 723-2480 or toll free at 1-866-680-2906. You can also write to the Stanford IRB, Stanford University, 3000 El Camino Real, Five Palo Alto Square, 4th Floor, Palo Alto, CA 94306. </p><p>You may want to print a copy of this consent form to keep. By clicking the button below, you acknowledge that you have read the above information, that you are 18 years of age, or older and give your consent to participate in our internet-based study and consent for us to analyze the resulting data. </p> </div><p> Do you agree with the terms of the experiment as explained above? </p>",,18088,,,3,html-button-response,,
737,color_on,,,,,,,,,,,,,,,,0.0-4.0-0.0,,,,,14675,light,,,32765,,instructions_pt1,4,instructions,"[{'page_index': 0, 'viewing_time': 3362}, {'page_index': 1, 'viewing_time': 2346}, {'page_index': 2, 'viewing_time': 2891}, {'page_index': 3, 'viewing_time': 3209}, {'page_index': 4, 'viewing_time': 2866}]",
737,color_on,False,,,,,,j,,,,,,,,,0.0-4.0-1.0-0.0,,,,f,7208,light,blicket_images/red_pyramid.jpg,,39982,,comprehension_quiz,5,image-keyboard-response,,
737,color_on,True,,,,,, ,,,,,,,,,0.0-4.0-1.0-1.0,,,, ,2853,light,blicket_images/red_pyramid_on.jpg,,42838,,comprehension_quiz,6,image-keyboard-response,,
737,color_on,False,,,,,,f,,,,,,,,,0.0-4.0-1.0-2.0,,,,j,5863,light,blicket_images/purple_prism.jpg,,48705,,comprehension_quiz,7,image-keyboard-response,,
737,color_on,True,,,,,, ,,,,,,,,,0.0-4.0-1.0-3.0,,,, ,1993,light,blicket_images/purple_prism_off.jpg,,50702,,comprehension_quiz,8,image-keyboard-response,,
737,color_on,False,,,,,,,,,,,,,,,0.0-4.0-2.0-0.0,,,,0,2792,light,<p> Oops! You have answered one or more questions incorrectly.</p><p> Please Review the instructions again before continuing with the experiment </p>,,53497,,fail_message,9,html-button-response,,
737,color_on,,,,,,,,,,,,,,,,0.0-4.1-0.1,,,,,12020,light,,,65520,,instructions_pt1,10,instructions,"[{'page_index': 0, 'viewing_time': 1071}, {'page_index': 1, 'viewing_time': 1201}, {'page_index': 2, 'viewing_time': 1636}, {'page_index': 3, 'viewing_time': 6169}, {'page_index': 4, 'viewing_time': 1943}]",
737,color_on,True,,,,,,j,,,,,,,,,0.0-4.1-1.1-0.1,,,,j,4538,light,blicket_images/red_pyramid.jpg,,70061,,comprehension_quiz,11,image-keyboard-response,,
737,color_on,True,,,,,, ,,,,,,,,,0.0-4.1-1.1-1.1,,,, ,1360,light,blicket_images/red_pyramid_on.jpg,,71424,,comprehension_quiz,12,image-keyboard-response,,
737,color_on,True,,,,,,f,,,,,,,,,0.0-4.1-1.1-2.1,,,,f,4172,light,blicket_images/purple_prism.jpg,,75598,,comprehension_quiz,13,image-keyboard-response,,
737,color_on,True,,,,,, ,,,,,,,,,0.0-4.1-1.1-3.1,,,, ,1363,light,blicket_images/purple_prism_off.jpg,,76963,,comprehension_quiz,14,image-keyboard-response,,
737,color_on,,,,,,,,,,,,,,,,0.0-5.0,,,,,26947,light,,,103912,,,15,instructions,"[{'page_index': 0, 'viewing_time': 3182}, {'page_index': 1, 'viewing_time': 2196}, {'page_index': 2, 'viewing_time': 712}, {'page_index': 3, 'viewing_time': 1461}, {'page_index': 4, 'viewing_time': 909}, {'page_index': 5, 'viewing_time': 5443}, {'page_index': 6, 'viewing_time': 6825}, {'page_index': 7, 'viewing_time': 5172}, {'page_index': 8, 'viewing_time': 1048}]",
737,color_on,True,1,,,,f,off,,,,,,,blicket_images/dc.jpg,,0.0-6.0,,,,f,5014,light,blicket_images/dc.jpg,,108929,,blicket,16,image-keyboard-response,,
737,color_on,,,,,,,,,,,,,,blicket_images/dc.jpg,,0.0-7.0,,,, ,1449,light,blicket_images/dc_off.jpg,,110383,,feedback,17,image-keyboard-response,,
737,color_on,True,1,,,,j,on,,,,,,,blicket_images/lc.jpg,,0.0-8.0,,,,j,2963,light,blicket_images/lc.jpg,,113348,,blicket,18,image-keyboard-response,,
737,color_on,True,1,,,blicket_images/lc.jpg,,lc,,,,,,,,blicket_images/lc.jpg,0.0-9.0,,,,lc,5150,light,"Which of these options shows the image from the last trial, that you just saw?",,118502,,pop_quiz,19,html-button-response,,
737,color_on,False,0,,,,,"['lc', 'ls']",,,,,,,,,0.0-10.0,,[0],,"['dc', 'lc']",12007,light,,,130518,,rule_question,20,survey-multi-select,,
737,color_on,,,,,,,,,,,,,,,,0.0-11.0,,,,0,2889,light,"<p>Thank you for participating!</p>You answered 2 out of 2 trials correctly, and will recieve a 5 cent bonus.<p>Now you will complete a short survey before finishing the experiment.</p>",,133416,,,21,html-button-response,,
737,color_on,,,28,0.05,,,,Hispanic,,,,the shape of the objects,Female,,,0.0-12.0,1,,White,"{'age': '28', 'race': 'White', 'gender': 'Female', 'feedback': 'the shape of the objects', 'ethnicity': 'Hispanic', 'other_race': '', 'other_gender': ''}",31593,light,,,165013,,exit_survey,22,survey-html-form,,
807,color_on,,,,,,,,,[],[],[],,,,,0.0-0.0,,,,,,light,,True,106,False,,0,preload,,
807,color_on,,,,,,,,,[],[],[],,,,,0.0-1.0,,,,,,light,,True,266,False,,1,preload,,
807,color_on,,,,,,,,,,,,,,,,0.0-2.0,,,,,,light,,True,3134,,,2,fullscreen,,
807,color_on,,,,,,,,,,,,,,,,0.0-3.0,,,,0,3432,light,"<p><b>Consent Form</b></p> <div style=""text-align:left;background-color:lightblue; padding:20px; max-width:900px;""><p><b>Description:</b> Welcome! You are invited to participate in a research study in cognitive psychology. You will be asked to perform various tasks on a computer which may include: looking at images or videos, listening to sounds, reading scenarios, or playing games. You may be asked a number of different questions about making judgments and intepreting people's actions. All information collected will remain confidential. </p> <p> <b>Risks and benefits:</b> Risks involved in this study are the same as those normally associated with using a computer (e.g., mild eye/arm strain). If you have any pre- existing conditions that might make reading and completing a computer-based survey strenuous for you, you should probably elect to not participate in this study. If at any time during the study you feel unable to participate because you are experiencing strain, you may end your participation without penalty. We cannot and do not guarantee or promise that you will receive any benefits from this study. Your decision whether or not to participate in this study will not affect your employment, medical care, and/or grades in school. </p><p><b>Time involvement:</b> Your participation in this experiment will take  5 minutes. </p><p><b> Payment:</b> If recruitment materials indicate payment (e.g., Prolific or other recruitment), you will receive compensation as indicated. </p><p><b>Subject's rights:</b> If you have read this notice and have decided to participate in this project, please understand your participation is voluntary and you have the right to withdraw your consent or discontinue participation at any time without penalty or loss of benefits to which you are otherwise entitled. You have the right to refuse to answer particular questions. Your individual privacy will be maintained in all published and written data resulting from the study. </p><p><b>Contact information:</b> If you have any questions, concerns or complaints about this research study, its procedures, or risks and benefits, you should ask the Protocol Director, (Professor Tobias Gerstenberg, Phone: (650) 725-2431; Email: gerstenberg@stanford.edu). </p><p><b>Independent contact:</b> If you are not satisfied with how this study is being conducted, or if you have any concerns, complaints, or general questions about the research or your rights as a participant, please contact the Stanford Institutional Review Board (IRB) to speak to someone independent of the research team via email at irb2-manager@lists.stanford.edu, or via phone at (650) 723-2480 or toll free at 1-866-680-2906. You can also write to the Stanford IRB, Stanford University, 3000 El Camino Real, Five Palo Alto Square, 4th Floor, Palo Alto, CA 94306. </p><p>You may want to print a copy of this consent form to keep. By clicking the button below, you acknowledge that you have read the above information, that you are 18 years of age, or older and give your consent to participate in our internet-based study and consent for us to analyze the resulting data. </p> </div><p> Do you agree with the terms of the experiment as explained above? </p>",,6568,,,3,html-button-response,,
807,color_on,,,,,,,,,,,,,,,,0.0-4.0-0.0,,,,,13152,light,,,19720,,instructions_pt1,4,instructions,"[{'page_index': 0, 'viewing_time': 1352}, {'page_index': 1, 'viewing_time': 2098}, {'page_index': 2, 'viewing_time': 5039}, {'page_index': 3, 'viewing_time': 2756}, {'page_index': 4, 'viewing_time': 1906}]",
807,color_on,False,,,,,,j,,,,,,,,,0.0-4.0-1.0-0.0,,,,f,8334,light,blicket_images/red_pyramid.jpg,,28064,,comprehension_quiz,5,image-keyboard-response,,
807,color_on,True,,,,,, ,,,,,,,,,0.0-4.0-1.0-1.0,,,, ,2941,light,blicket_images/red_pyramid_on.jpg,,31006,,comprehension_quiz,6,image-keyboard-response,,
807,color_on,False,,,,,,f,,,,,,,,,0.0-4.0-1.0-2.0,,,,j,4407,light,blicket_images/purple_prism.jpg,,35414,,comprehension_quiz,7,image-keyboard-response,,
807,color_on,True,,,,,, ,,,,,,,,,0.0-4.0-1.0-3.0,,,, ,1950,light,blicket_images/purple_prism_off.jpg,,37366,,comprehension_quiz,8,image-keyboard-response,,
807,color_on,False,,,,,,,,,,,,,,,0.0-4.0-2.0-0.0,,,,0,3305,light,<p> Oops! You have answered one or more questions incorrectly.</p><p> Please Review the instructions again before continuing with the experiment </p>,,40673,,fail_message,9,html-button-response,,
807,color_on,,,,,,,,,,,,,,,,0.0-4.1-0.1,,,,,11000,light,,,51674,,instructions_pt1,10,instructions,"[{'page_index': 0, 'viewing_time': 1399}, {'page_index': 1, 'viewing_time': 1415}, {'page_index': 2, 'viewing_time': 3002}, {'page_index': 3, 'viewing_time': 2914}, {'page_index': 4, 'viewing_time': 2270}]",
807,color_on,True,,,,,,j,,,,,,,,,0.0-4.1-1.1-0.1,,,,j,4122,light,blicket_images/red_pyramid.jpg,,55797,,comprehension_quiz,11,image-keyboard-response,,
807,color_on,True,,,,,, ,,,,,,,,,0.0-4.1-1.1-1.1,,,, ,1390,light,blicket_images/red_pyramid_on.jpg,,57189,,comprehension_quiz,12,image-keyboard-response,,
807,color_on,True,,,,,,f,,,,,,,,,0.0-4.1-1.1-2.1,,,,f,1263,light,blicket_images/purple_prism.jpg,,58453,,comprehension_quiz,13,image-keyboard-response,,
807,color_on,True,,,,,, ,,,,,,,,,0.0-4.1-1.1-3.1,,,, ,871,light,blicket_images/purple_prism_off.jpg,,59325,,comprehension_quiz,14,image-keyboard-response,,
807,color_on,,,,,,,,,,,,,,,,0.0-5.0,,,,,26597,light,,,85921,,,15,instructions,"[{'page_index': 0, 'viewing_time': 3170}, {'page_index': 1, 'viewing_time': 1792}, {'page_index': 2, 'viewing_time': 1460}, {'page_index': 3, 'viewing_time': 1204}, {'page_index': 4, 'viewing_time': 756}, {'page_index': 5, 'viewing_time': 5902}, {'page_index': 6, 'viewing_time': 6244}, {'page_index': 7, 'viewing_time': 4948}, {'page_index': 8, 'viewing_time': 1120}]",
807,color_on,True,1,,,,j,on,,,,,,,blicket_images/lc.jpg,,0.0-6.0,,,,j,2962,light,blicket_images/lc.jpg,,88884,,blicket,16,image-keyboard-response,,
807,color_on,,,,,,,,,,,,,,blicket_images/lc.jpg,,0.0-7.0,,,, ,4978,light,blicket_images/lc_on.jpg,,93864,,feedback,17,image-keyboard-response,,
807,color_on,True,1,,,,j,on,,,,,,,blicket_images/ls.jpg,,0.0-8.0,,,,j,1927,light,blicket_images/ls.jpg,,95792,,blicket,18,image-keyboard-response,,
807,color_on,True,1,,,blicket_images/ls.jpg,,ls,,,,,,,,blicket_images/ls.jpg,0.0-9.0,,,,ls,5022,light,"Which of these options shows the image from the last trial, that you just saw?",,100816,,pop_quiz,19,html-button-response,,
807,color_on,False,0,,,,,"['lc', 'ls']",,,,,,,,,0.0-10.0,,[0],,['lc'],5065,light,,,105886,,rule_question,20,survey-multi-select,,
807,color_on,,,,,,,,,,,,,,,,0.0-11.0,,,,0,4452,light,"<p>Thank you for participating!</p>You answered 2 out of 2 trials correctly, and will recieve a 5 cent bonus.<p>Now you will complete a short survey before finishing the experiment.</p>",,110341,,,21,html-button-response,,
807,color_on,,,25,0.05,,,,Non-Hispanic,,,,,Female,,,0.0-12.0,1,,White,"{'age': '25', 'race': 'White', 'gender': 'Female', 'feedback': '', 'ethnicity': 'Non-Hispanic', 'other_race': '', 'other_gender': ''}",10787,light,,,121130,,exit_survey,22,survey-html-form,,
819,color_on,,,,,,,,,[],[],[],,,,,0.0-0.0,,,,,,light,,True,318,False,,0,preload,,
819,color_on,,,,,,,,,[],[],[],,,,,0.0-1.0,,,,,,light,,True,578,False,,1,preload,,
819,color_on,,,,,,,,,,,,,,,,0.0-2.0,,,,,,light,,True,4863,,,2,fullscreen,,
819,color_on,,,,,,,,,,,,,,,,0.0-3.0,,,,0,8235,light,"<p><b>Consent Form</b></p> <div style=""text-align:left;background-color:lightblue; padding:20px; max-width:900px;""><p><b>Description:</b> Welcome! You are invited to participate in a research study in cognitive psychology. You will be asked to perform various tasks on a computer which may include: looking at images or videos, listening to sounds, reading scenarios, or playing games. You may be asked a number of different questions about making judgments and intepreting people's actions. All information collected will remain confidential. </p> <p> <b>Risks and benefits:</b> Risks involved in this study are the same as those normally associated with using a computer (e.g., mild eye/arm strain). If you have any pre- existing conditions that might make reading and completing a computer-based survey strenuous for you, you should probably elect to not participate in this study. If at any time during the study you feel unable to participate because you are experiencing strain, you may end your participation without penalty. We cannot and do not guarantee or promise that you will receive any benefits from this study. Your decision whether or not to participate in this study will not affect your employment, medical care, and/or grades in school. </p><p><b>Time involvement:</b> Your participation in this experiment will take  5 minutes. </p><p><b> Payment:</b> If recruitment materials indicate payment (e.g., Prolific or other recruitment), you will receive compensation as indicated. </p><p><b>Subject's rights:</b> If you have read this notice and have decided to participate in this project, please understand your participation is voluntary and you have the right to withdraw your consent or discontinue participation at any time without penalty or loss of benefits to which you are otherwise entitled. You have the right to refuse to answer particular questions. Your individual privacy will be maintained in all published and written data resulting from the study. </p><p><b>Contact information:</b> If you have any questions, concerns or complaints about this research study, its procedures, or risks and benefits, you should ask the Protocol Director, (Professor Tobias Gerstenberg, Phone: (650) 725-2431; Email: gerstenberg@stanford.edu). </p><p><b>Independent contact:</b> If you are not satisfied with how this study is being conducted, or if you have any concerns, complaints, or general questions about the research or your rights as a participant, please contact the Stanford Institutional Review Board (IRB) to speak to someone independent of the research team via email at irb2-manager@lists.stanford.edu, or via phone at (650) 723-2480 or toll free at 1-866-680-2906. You can also write to the Stanford IRB, Stanford University, 3000 El Camino Real, Five Palo Alto Square, 4th Floor, Palo Alto, CA 94306. </p><p>You may want to print a copy of this consent form to keep. By clicking the button below, you acknowledge that you have read the above information, that you are 18 years of age, or older and give your consent to participate in our internet-based study and consent for us to analyze the resulting data. </p> </div><p> Do you agree with the terms of the experiment as explained above? </p>",,13101,,,3,html-button-response,,
819,color_on,,,,,,,,,,,,,,,,0.0-4.0-0.0,,,,,23964,light,,,37068,,instructions_pt1,4,instructions,"[{'page_index': 0, 'viewing_time': 2992}, {'page_index': 1, 'viewing_time': 4394}, {'page_index': 2, 'viewing_time': 7139}, {'page_index': 3, 'viewing_time': 4721}, {'page_index': 4, 'viewing_time': 4718}]",
819,color_on,True,,,,,,j,,,,,,,,,0.0-4.0-1.0-0.0,,,,j,12535,light,blicket_images/red_pyramid.jpg,,49626,,comprehension_quiz,5,image-keyboard-response,,
819,color_on,True,,,,,, ,,,,,,,,,0.0-4.0-1.0-1.0,,,, ,4086,light,blicket_images/red_pyramid_on.jpg,,53718,,comprehension_quiz,6,image-keyboard-response,,
819,color_on,True,,,,,,f,,,,,,,,,0.0-4.0-1.0-2.0,,,,f,8309,light,blicket_images/purple_prism.jpg,,62031,,comprehension_quiz,7,image-keyboard-response,,
819,color_on,True,,,,,, ,,,,,,,,,0.0-4.0-1.0-3.0,,,, ,2085,light,blicket_images/purple_prism_off.jpg,,64120,,comprehension_quiz,8,image-keyboard-response,,
819,color_on,,,,,,,,,,,,,,,,0.0-5.0,,,,,427456,light,,,491582,,,9,instructions,"[{'page_index': 0, 'viewing_time': 10156}, {'page_index': 1, 'viewing_time': 2622}, {'page_index': 2, 'viewing_time': 1071}, {'page_index': 3, 'viewing_time': 1420}, {'page_index': 4, 'viewing_time': 951}, {'page_index': 5, 'viewing_time': 391805}, {'page_index': 6, 'viewing_time': 12139}, {'page_index': 7, 'viewing_time': 4899}, {'page_index': 8, 'viewing_time': 2392}]",
819,color_on,False,0,,,,f,off,,,,,,,blicket_images/ds.jpg,,0.0-6.0,,,,j,4352,light,blicket_images/ds.jpg,,495939,,blicket,10,image-keyboard-response,,
819,color_on,,,,,,,,,,,,,,blicket_images/ds.jpg,,0.0-7.0,,,, ,4145,light,blicket_images/ds_off.jpg,,500094,,feedback,11,image-keyboard-response,,
819,color_on,True,1,,,,j,on,,,,,,,blicket_images/lc.jpg,,0.0-8.0,,,,j,18600,light,blicket_images/lc.jpg,,518697,,blicket,12,image-keyboard-response,,
819,color_on,True,1,,,blicket_images/lc.jpg,,lc,,,,,,,,blicket_images/lc.jpg,0.0-9.0,,,,lc,8061,light,"Which of these options shows the image from the last trial, that you just saw?",,526763,,pop_quiz,13,html-button-response,,
819,color_on,False,0,,,,,"['lc', 'ls']",,,,,,,,,0.0-10.0,,[0],,"['dc', 'lc']",9847,light,,,536622,,rule_question,14,survey-multi-select,,
819,color_on,,,,,,,,,,,,,,,,0.0-11.0,,,,0,6941,light,"<p>Thank you for participating!</p>You answered 1 out of 2 trials correctly, and will recieve a 3 cent bonus.<p>Now you will complete a short survey before finishing the experiment.</p>",,543569,,,15,html-button-response,,
819,color_on,,,56,0.025,,,,Non-Hispanic,,,,,Female,,,0.0-12.0,0.5,,White,"{'age': '56', 'race': 'White', 'gender': 'Female', 'feedback': '', 'ethnicity': 'Non-Hispanic', 'other_race': '', 'other_gender': ''}",15225,light,,,558801,,exit_survey,16,survey-html-form,,
757,color_on,,,,,,,,,[],[],[],,,,,0.0-0.0,,,,,,dark,,True,218,False,,0,preload,,
757,color_on,,,,,,,,,[],[],[],,,,,0.0-1.0,,,,,,dark,,True,869,False,,1,preload,,
757,color_on,,,,,,,,,,,,,,,,0.0-2.0,,,,,,dark,,True,68513,,,2,fullscreen,,
757,color_on,,,,,,,,,,,,,,,,0.0-3.0,,,,0,2215,dark,"<p><b>Consent Form</b></p> <div style=""text-align:left;background-color:lightblue; padding:20px; max-width:900px;""><p><b>Description:</b> Welcome! You are invited to participate in a research study in cognitive psychology. You will be asked to perform various tasks on a computer which may include: looking at images or videos, listening to sounds, reading scenarios, or playing games. You may be asked a number of different questions about making judgments and intepreting people's actions. All information collected will remain confidential. </p> <p> <b>Risks and benefits:</b> Risks involved in this study are the same as those normally associated with using a computer (e.g., mild eye/arm strain). If you have any pre- existing conditions that might make reading and completing a computer-based survey strenuous for you, you should probably elect to not participate in this study. If at any time during the study you feel unable to participate because you are experiencing strain, you may end your participation without penalty. We cannot and do not guarantee or promise that you will receive any benefits from this study. Your decision whether or not to participate in this study will not affect your employment, medical care, and/or grades in school. </p><p><b>Time involvement:</b> Your participation in this experiment will take  5 minutes. </p><p><b> Payment:</b> If recruitment materials indicate payment (e.g., Prolific or other recruitment), you will receive compensation as indicated. </p><p><b>Subject's rights:</b> If you have read this notice and have decided to participate in this project, please understand your participation is voluntary and you have the right to withdraw your consent or discontinue participation at any time without penalty or loss of benefits to which you are otherwise entitled. You have the right to refuse to answer particular questions. Your individual privacy will be maintained in all published and written data resulting from the study. </p><p><b>Contact information:</b> If you have any questions, concerns or complaints about this research study, its procedures, or risks and benefits, you should ask the Protocol Director, (Professor Tobias Gerstenberg, Phone: (650) 725-2431; Email: gerstenberg@stanford.edu). </p><p><b>Independent contact:</b> If you are not satisfied with how this study is being conducted, or if you have any concerns, complaints, or general questions about the research or your rights as a participant, please contact the Stanford Institutional Review Board (IRB) to speak to someone independent of the research team via email at irb2-manager@lists.stanford.edu, or via phone at (650) 723-2480 or toll free at 1-866-680-2906. You can also write to the Stanford IRB, Stanford University, 3000 El Camino Real, Five Palo Alto Square, 4th Floor, Palo Alto, CA 94306. </p><p>You may want to print a copy of this consent form to keep. By clicking the button below, you acknowledge that you have read the above information, that you are 18 years of age, or older and give your consent to participate in our internet-based study and consent for us to analyze the resulting data. </p> </div><p> Do you agree with the terms of the experiment as explained above? </p>",,70730,,,3,html-button-response,,
757,color_on,,,,,,,,,,,,,,,,0.0-4.0-0.0,,,,,18512,dark,,,89243,,instructions_pt1,4,instructions,"[{'page_index': 0, 'viewing_time': 4321}, {'page_index': 1, 'viewing_time': 2072}, {'page_index': 2, 'viewing_time': 3856}, {'page_index': 3, 'viewing_time': 4202}, {'page_index': 4, 'viewing_time': 4060}]",
757,color_on,True,,,,,,j,,,,,,,,,0.0-4.0-1.0-0.0,,,,j,12442,dark,blicket_images/red_pyramid.jpg,,101696,,comprehension_quiz,5,image-keyboard-response,,
757,color_on,True,,,,,, ,,,,,,,,,0.0-4.0-1.0-1.0,,,, ,3372,dark,blicket_images/red_pyramid_on.jpg,,105071,,comprehension_quiz,6,image-keyboard-response,,
757,color_on,True,,,,,,f,,,,,,,,,0.0-4.0-1.0-2.0,,,,f,4581,dark,blicket_images/purple_prism.jpg,,109654,,comprehension_quiz,7,image-keyboard-response,,
757,color_on,True,,,,,, ,,,,,,,,,0.0-4.0-1.0-3.0,,,, ,610,dark,blicket_images/purple_prism_off.jpg,,110266,,comprehension_quiz,8,image-keyboard-response,,
757,color_on,,,,,,,,,,,,,,,,0.0-5.0,,,,,22056,dark,,,132332,,,9,instructions,"[{'page_index': 0, 'viewing_time': 3140}, {'page_index': 1, 'viewing_time': 1900}, {'page_index': 2, 'viewing_time': 844}, {'page_index': 3, 'viewing_time': 1056}, {'page_index': 4, 'viewing_time': 692}, {'page_index': 5, 'viewing_time': 8894}, {'page_index': 6, 'viewing_time': 1192}, {'page_index': 7, 'viewing_time': 3350}, {'page_index': 8, 'viewing_time': 988}]",
757,color_on,False,0,,,,f,off,,,,,,,blicket_images/lc.jpg,,0.0-6.0,,,,j,4083,dark,blicket_images/lc.jpg,,136416,,blicket,10,image-keyboard-response,,
757,color_on,,,,,,,,,,,,,,blicket_images/lc.jpg,,0.0-7.0,,,, ,1851,dark,blicket_images/lc_off.jpg,,138272,,feedback,11,image-keyboard-response,,
757,color_on,True,1,,,,j,on,,,,,,,blicket_images/dc.jpg,,0.0-8.0,,,,j,1651,dark,blicket_images/dc.jpg,,139925,,blicket,12,image-keyboard-response,,
757,color_on,True,1,,,blicket_images/dc.jpg,,dc,,,,,,,,blicket_images/dc.jpg,0.0-9.0,,,,dc,4704,dark,"Which of these options shows the image from the last trial, that you just saw?",,144632,,pop_quiz,13,html-button-response,,
757,color_on,False,0,,,,,"['dc', 'ds']",,,,,,,,,0.0-10.0,,[0],,"['dc', 'lc']",7455,dark,,,152094,,rule_question,14,survey-multi-select,,
757,color_on,,,,,,,,,,,,,,,,0.0-11.0,,,,0,3288,dark,"<p>Thank you for participating!</p>You answered 1 out of 2 trials correctly, and will recieve a 3 cent bonus.<p>Now you will complete a short survey before finishing the experiment.</p>",,155385,,,15,html-button-response,,
