workerid,proliferate.condition,age,bonus,ethnicity,feedback,gender,internal_node_id,overall_accuracy,race,response,rt,rule,time_elapsed,trial,trial_index,trial_type,error
815,color_on,30,0.025,Non-Hispanic,,Male,0.0-12.0,0.5,White,"{'age': '30', 'race': 'White', 'gender': 'Male', 'feedback': '', 'ethnicity': 'Non-Hispanic', 'other_race': '', 'other_gender': ''}",8474,cylinder,72161,exit_survey,16,survey-html-form,
749,color_on,25,0.05,Non-Hispanic,,Male,0.0-12.0,1,White,"{'age': '25', 'race': 'White', 'gender': 'Male', 'feedback': '', 'ethnicity': 'Non-Hispanic', 'other_race': '', 'other_gender': ''}",11470,dark,245572,exit_survey,16,survey-html-form,
745,color_on,40,0.025,Non-Hispanic,the instructions,Female,0.0-12.0,0.5,White,"{'age': '40', 'race': 'White', 'gender': 'Female', 'feedback': 'the instructions', 'ethnicity': 'Non-Hispanic', 'other_race': '', 'other_gender': ''}",14927,light,143772,exit_survey,22,survey-html-form,
799,color_on,43,0.025,Non-Hispanic,Interesting,Female,0.0-12.0,0.5,,"{'age': '43', 'gender': 'Female', 'feedback': 'Interesting', 'ethnicity': 'Non-Hispanic', 'other_race': '', 'other_gender': ''}",13295,dark,134265,exit_survey,22,survey-html-form,
840,color_on,31,0.025,Non-Hispanic,,Male,0.0-12.0,0.5,White,"{'age': '31', 'race': 'White', 'gender': 'Male', 'feedback': '', 'ethnicity': 'Non-Hispanic', 'other_race': '', 'other_gender': ''}",6254,light,79641,exit_survey,16,survey-html-form,
851,color_on,24,0.025,Non-Hispanic,I assumed that the second object would be a Blicket since the first one wasn't.,Female,0.0-12.0,0.5,Black/African American,"{'age': '24', 'race': 'Black/African American', 'gender': 'Female', 'feedback': ""I assumed that the second object would be a Blicket since the first one wasn't."", 'ethnicity': 'Non-Hispanic', 'other_race': '', 'other_gender': ''}",35748,dark,147100,exit_survey,16,survey-html-form,
848,color_on,23,0.025,Non-Hispanic,I decided based on what I thought seemed like a blinket,Male,0.0-12.0,0.5,White,"{'age': '23', 'race': 'White', 'gender': 'Male', 'feedback': 'I decided based on what I thought seemed like a blinket', 'ethnicity': 'Non-Hispanic', 'other_race': '', 'other_gender': ''}",24343,light,95401,exit_survey,16,survey-html-form,
832,color_on,29,0,Non-Hispanic,It was a guess,Non-binary,0.0-12.0,0,White,"{'age': '29', 'race': 'White', 'gender': 'Non-binary', 'feedback': 'It was a guess', 'ethnicity': 'Non-Hispanic', 'other_race': '', 'other_gender': ''}",23314,dark,144539,exit_survey,16,survey-html-form,
795,color_on,64,0.05,Non-Hispanic,none,Female,0.0-12.0,1,White,"{'age': '64', 'race': 'White', 'gender': 'Female', 'feedback': 'none', 'ethnicity': 'Non-Hispanic', 'other_race': '', 'other_gender': ''}",43186,dark,211991,exit_survey,16,survey-html-form,
844,color_on,20,0.025,Non-Hispanic,the color and shape of the face of the object,Female,0.0-12.0,0.5,White,"{'age': '20', 'race': 'White', 'gender': 'Female', 'feedback': 'the color and shape of the face of the object', 'ethnicity': 'Non-Hispanic', 'other_race': '', 'other_gender': ''}",40962,light,225225,exit_survey,16,survey-html-form,
765,color_on,23,0.05,Non-Hispanic,"I was guessing it was color, but wasn't sure",Male,0.0-12.0,1,White,"{'age': '23', 'race': 'White', 'gender': 'Male', 'feedback': ""I was guessing it was color, but wasn't sure"", 'ethnicity': 'Non-Hispanic', 'other_race': '', 'other_gender': ''}",49596,light,158998,exit_survey,16,survey-html-form,
737,color_on,28,0.05,Hispanic,the shape of the objects,Female,0.0-12.0,1,White,"{'age': '28', 'race': 'White', 'gender': 'Female', 'feedback': 'the shape of the objects', 'ethnicity': 'Hispanic', 'other_race': '', 'other_gender': ''}",31593,light,165013,exit_survey,22,survey-html-form,
807,color_on,25,0.05,Non-Hispanic,,Female,0.0-12.0,1,White,"{'age': '25', 'race': 'White', 'gender': 'Female', 'feedback': '', 'ethnicity': 'Non-Hispanic', 'other_race': '', 'other_gender': ''}",10787,light,121130,exit_survey,22,survey-html-form,
819,color_on,56,0.025,Non-Hispanic,,Female,0.0-12.0,0.5,White,"{'age': '56', 'race': 'White', 'gender': 'Female', 'feedback': '', 'ethnicity': 'Non-Hispanic', 'other_race': '', 'other_gender': ''}",15225,light,558801,exit_survey,16,survey-html-form,
757,color_on,40,0.025,Non-Hispanic,,Female,0.0-12.0,0.5,White,"{'age': '40', 'race': 'White', 'gender': 'Female', 'feedback': '', 'ethnicity': 'Non-Hispanic', 'other_race': '', 'other_gender': ''}",8917,dark,164305,exit_survey,16,survey-html-form,
803,color_on,21,0.05,Non-Hispanic,No factors influenced me to respond a certain way,Female,0.0-12.0,1,Asian,"{'age': '21', 'race': 'Asian', 'gender': 'Female', 'feedback': 'No factors influenced me to respond a certain way', 'ethnicity': 'Non-Hispanic', 'other_race': '', 'other_gender': ''}",23832,light,83535,exit_survey,16,survey-html-form,
779,color_on,35,0.025,Non-Hispanic,color,Male,0.0-12.0,0.5,White,"{'age': '35', 'race': 'White', 'gender': 'Male', 'feedback': 'color', 'ethnicity': 'Non-Hispanic', 'other_race': '', 'other_gender': ''}",18360,light,90012,exit_survey,22,survey-html-form,
729,color_on,65,0.025,Non-Hispanic,"I was not certain which of the shapes were blickets and which were not; therefore, I determined all were likely blickets. No comments or questions.",Male,0.0-12.0,0.5,White,"{'age': '65', 'race': 'White', 'gender': 'Male', 'feedback': 'I was not certain which of the shapes were blickets and which were not; therefore, I determined all were likely blickets. No comments or questions.', 'ethnicity': 'Non-Hispanic', 'other_race': '', 'other_gender': ''}",96593,light,349611,exit_survey,22,survey-html-form,
783,color_on,35,0,Non-Hispanic,,Male,0.0-12.0,0,White,"{'age': '35', 'race': 'White', 'gender': 'Male', 'feedback': '', 'ethnicity': 'Non-Hispanic', 'other_race': '', 'other_gender': ''}",9710,dark,122836,exit_survey,22,survey-html-form,
836,color_on,19,0.025,Non-Hispanic,,Female,0.0-12.0,0.5,White,"{'age': '19', 'race': 'White', 'gender': 'Female', 'feedback': '', 'ethnicity': 'Non-Hispanic', 'other_race': '', 'other_gender': ''}",9031,dark,113746,exit_survey,22,survey-html-form,
823,color_on,38,0.025,Non-Hispanic,I guessed at first and then gathered information to make a more informed decision.,Female,0.0-12.0,0.5,White,"{'age': '38', 'race': 'White', 'gender': 'Female', 'feedback': 'I guessed at first and then gathered information to make a more informed decision.', 'ethnicity': 'Non-Hispanic', 'other_race': '', 'other_gender': ''}",37632,light,135253,exit_survey,16,survey-html-form,
774,color_on,25,0.025,Non-Hispanic,I wanted to determine if the color dictated if it was a blicket or not. ,Non-binary,0.0-12.0,0.5,Multiracial,"{'age': '25', 'race': 'Multiracial', 'gender': 'Non-binary', 'feedback': 'I wanted to determine if the color dictated if it was a blicket or not. ', 'ethnicity': 'Non-Hispanic', 'other_race': '', 'other_gender': ''}",71124,dark,281490,exit_survey,16,survey-html-form,
733,color_on,27,0.025,Non-Hispanic,,Female,0.0-12.0,0.5,White,"{'age': '27', 'race': 'White', 'gender': 'Female', 'feedback': '', 'ethnicity': 'Non-Hispanic', 'other_race': '', 'other_gender': ''}",9523,light,116489,exit_survey,16,survey-html-form,
753,color_on,25,0.025,Non-Hispanic,What happened previously,Female,0.0-12.0,0.5,White,"{'age': '25', 'race': 'White', 'gender': 'Female', 'feedback': 'What happened previously', 'ethnicity': 'Non-Hispanic', 'other_race': '', 'other_gender': ''}",18334,light,89643,exit_survey,16,survey-html-form,
761,color_on,18,0,,,,0.0-12.0,0,,"{'age': '18', 'feedback': '', 'other_race': '', 'other_gender': ''}",11100,dark,129361,exit_survey,22,survey-html-form,
769,color_on,38,0,Non-Hispanic,"I incorrectly guessed the first one, so I assumed its opposite was correct. ",Female,0.0-12.0,0,White,"{'age': '38', 'race': 'White', 'gender': 'Female', 'feedback': 'I incorrectly guessed the first one, so I assumed its opposite was correct. ', 'ethnicity': 'Non-Hispanic', 'other_race': '', 'other_gender': ''}",36669,light,119721,exit_survey,22,survey-html-form,
828,color_on,21,0.025,Non-Hispanic,,Male,0.0-12.0,0.5,White,"{'age': '21', 'race': 'White', 'gender': 'Male', 'feedback': '', 'ethnicity': 'Non-Hispanic', 'other_race': '', 'other_gender': ''}",10976,dark,107619,exit_survey,16,survey-html-form,
827,color_on,28,0.025,Non-Hispanic,It didn't go on long enough to determine,Female,0.0-12.0,0.5,White,"{'age': '28', 'race': 'White', 'gender': 'Female', 'feedback': ""It didn't go on long enough to determine"", 'ethnicity': 'Non-Hispanic', 'other_race': '', 'other_gender': ''}",16799,dark,89759,exit_survey,22,survey-html-form,
772,color_on,42,0.025,Non-Hispanic,,Male,0.0-12.0,0.5,White,"{'age': '42', 'race': 'White', 'gender': 'Male', 'feedback': '', 'ethnicity': 'Non-Hispanic', 'other_race': '', 'other_gender': ''}",16685,light,124244,exit_survey,16,survey-html-form,
791,color_on,28,0.025,Non-Hispanic,,Male,0.0-12.0,0.5,White,"{'age': '28', 'race': 'White', 'gender': 'Male', 'feedback': '', 'ethnicity': 'Non-Hispanic', 'other_race': '', 'other_gender': ''}",11604,dark,97786,exit_survey,16,survey-html-form,
781,color_off,47,0.025,Non-Hispanic,I chose the one I saw earlier that was a blicket. Wish we had more trials. The task was fun.,Female,0.0-12.0,0.5,White,"{'age': '47', 'race': 'White', 'gender': 'Female', 'feedback': 'I chose the one I saw earlier that was a blicket. Wish we had more trials. The task was fun.', 'ethnicity': 'Non-Hispanic', 'other_race': '', 'other_gender': ''}",131283,dark,282052,exit_survey,16,survey-html-form,
843,color_off,43,0.025,Hispanic,"color, shape",Female,0.0-12.0,0.5,Multiracial,"{'age': '43', 'race': 'Multiracial', 'gender': 'Female', 'feedback': 'color, shape', 'ethnicity': 'Hispanic', 'other_race': '', 'other_gender': ''}",452999,dark,540559,exit_survey,16,survey-html-form,
773,color_off,19,0.05,Hispanic,Dark objects,Female,0.0-12.0,1,Multiracial,"{'age': '19', 'race': 'Multiracial', 'gender': 'Female', 'feedback': 'Dark objects', 'ethnicity': 'Hispanic', 'other_race': '', 'other_gender': ''}",26855,dark,134150,exit_survey,16,survey-html-form,
740,color_off,75,0.05,,I guessed,Female,0.0-12.0,1,White,"{'age': '75', 'race': 'White', 'gender': 'Female', 'feedback': 'I guessed', 'other_race': '', 'other_gender': ''}",25889,light,244483,exit_survey,28,survey-html-form,
786,color_off,25,0.025,Non-Hispanic,,Male,0.0-12.0,0.5,White,"{'age': '25', 'race': 'White', 'gender': 'Male', 'feedback': '', 'ethnicity': 'Non-Hispanic', 'other_race': '', 'other_gender': ''}",11460,light,107483,exit_survey,22,survey-html-form,
767,color_off,25,0.025,Non-Hispanic,,Male,0.0-12.0,0.5,White,"{'age': '25', 'race': 'White', 'gender': 'Male', 'feedback': '', 'ethnicity': 'Non-Hispanic', 'other_race': '', 'other_gender': ''}",18573,light,132279,exit_survey,22,survey-html-form,
798,color_off,60,0.025,,the shape,Female,0.0-12.0,0.5,White,"{'age': '60', 'race': 'White', 'gender': 'Female', 'feedback': 'the shape', 'other_race': '', 'other_gender': ''}",32471,dark,206580,exit_survey,16,survey-html-form,
814,color_off,20,0.025,Non-Hispanic,,Female,0.0-12.0,0.5,White,"{'age': '20', 'race': 'White', 'gender': 'Female', 'feedback': '', 'ethnicity': 'Non-Hispanic', 'other_race': '', 'other_gender': ''}",20568,light,124001,exit_survey,22,survey-html-form,
810,color_off,20,0,Non-Hispanic,,Female,0.0-12.0,0,White,"{'age': '20', 'race': 'White', 'gender': 'Female', 'feedback': '', 'ethnicity': 'Non-Hispanic', 'other_race': '', 'other_gender': ''}",8135,light,78969,exit_survey,22,survey-html-form,
839,color_off,39,0,Non-Hispanic,I just guessed,Female,0.0-12.0,0,White,"{'age': '39', 'race': 'White', 'gender': 'Female', 'feedback': 'I just guessed', 'ethnicity': 'Non-Hispanic', 'other_race': '', 'other_gender': ''}",48207,light,337621,exit_survey,16,survey-html-form,
744,color_off,20,0.025,Non-Hispanic,NA,Female,0.0-12.0,0.5,White,"{'age': '20', 'race': 'White', 'gender': 'Female', 'feedback': 'NA', 'ethnicity': 'Non-Hispanic', 'other_race': '', 'other_gender': ''}",18951,light,111421,exit_survey,16,survey-html-form,
731,color_off,27,0.025,Non-Hispanic,,Male,0.0-12.0,0.5,White,"{'age': '27', 'race': 'White', 'gender': 'Male', 'feedback': '', 'ethnicity': 'Non-Hispanic', 'other_race': '', 'other_gender': ''}",14402,dark,143752,exit_survey,16,survey-html-form,
759,color_off,20,0.025,Non-Hispanic,The colors,Female,0.0-12.0,0.5,Black/African American,"{'age': '20', 'race': 'Black/African American', 'gender': 'Female', 'feedback': 'The colors', 'ethnicity': 'Non-Hispanic', 'other_race': '', 'other_gender': ''}",21988,light,143443,exit_survey,16,survey-html-form,
820,color_off,25,0,Non-Hispanic,,Female,0.0-12.0,0,Asian,"{'age': '25', 'race': 'Asian', 'gender': 'Female', 'feedback': '', 'ethnicity': 'Non-Hispanic', 'other_race': '', 'other_gender': ''}",12104,dark,131735,exit_survey,22,survey-html-form,
826,color_off,41,0.05,Non-Hispanic,I just guessed on the first one and then did opposite on the second. ,Female,0.0-12.0,1,White,"{'age': '41', 'race': 'White', 'gender': 'Female', 'feedback': 'I just guessed on the first one and then did opposite on the second. ', 'ethnicity': 'Non-Hispanic', 'other_race': '', 'other_gender': ''}",40695,dark,241335,exit_survey,16,survey-html-form,
777,color_off,59,0.05,Non-Hispanic,just a guess really,Female,0.0-12.0,1,White,"{'age': '59', 'race': 'White', 'gender': 'Female', 'feedback': 'just a guess really', 'ethnicity': 'Non-Hispanic', 'other_race': '', 'other_gender': ''}",25916,light,139580,exit_survey,16,survey-html-form,
818,color_off,32,0.05,Non-Hispanic,,Female,0.0-12.0,1,White,"{'age': '32', 'race': 'White', 'gender': 'Female', 'feedback': '', 'ethnicity': 'Non-Hispanic', 'other_race': '', 'other_gender': ''}",10112,dark,165868,exit_survey,22,survey-html-form,
802,color_off,39,0.025,Hispanic,The main factor was the shade of the shape and how it interacted with the machine.,Male,0.0-12.0,0.5,White,"{'age': '39', 'race': 'White', 'gender': 'Male', 'feedback': 'The main factor was the shade of the shape and how it interacted with the machine.', 'ethnicity': 'Hispanic', 'other_race': '', 'other_gender': ''}",55935,dark,255787,exit_survey,16,survey-html-form,
850,color_off,55,0.05,Non-Hispanic,I carefully studied the images that were provided.,Female,0.0-12.0,1,White,"{'age': '55', 'race': 'White', 'gender': 'Female', 'feedback': 'I carefully studied the images that were provided.', 'ethnicity': 'Non-Hispanic', 'other_race': '', 'other_gender': ''}",49423,light,235077,exit_survey,16,survey-html-form,
736,color_off,31,0.025,Hispanic,color,Male,0.0-12.0,0.5,Multiracial,"{'age': '31', 'race': 'Multiracial', 'gender': 'Male', 'feedback': 'color', 'ethnicity': 'Hispanic', 'other_race': '', 'other_gender': ''}",22751,light,160158,exit_survey,16,survey-html-form,
835,color_off,28,0.025,Non-Hispanic,What I thought was a blicket,Female,0.0-12.0,0.5,White,"{'age': '28', 'race': 'White', 'gender': 'Female', 'feedback': 'What I thought was a blicket', 'ethnicity': 'Non-Hispanic', 'other_race': '', 'other_gender': ''}",18482,dark,103233,exit_survey,16,survey-html-form,
727,color_off,55,0.05,Non-Hispanic,went with the light colored one,Female,0.0-12.0,1,White,"{'age': '55', 'race': 'White', 'gender': 'Female', 'feedback': 'went with the light colored one', 'ethnicity': 'Non-Hispanic', 'other_race': '', 'other_gender': ''}",22469,light,857542,exit_survey,16,survey-html-form,
792,color_off,31,0.025,Non-Hispanic,"Since cylinders were not part of the trial I disregarded them as Blickets, incorrectly it seems",Non-binary,0.0-12.0,0.5,White,"{'age': '31', 'race': 'White', 'gender': 'Non-binary', 'feedback': 'Since cylinders were not part of the trial I disregarded them as Blickets, incorrectly it seems', 'ethnicity': 'Non-Hispanic', 'other_race': '', 'other_gender': ''}",36863,light,158890,exit_survey,22,survey-html-form,
778,color_off,23,0.025,Non-Hispanic,"Given the shape we were provided and knew the correct answer of, I made an educated guess as to which light/dark cylinder/cube was a blinket.",Female,0.0-12.0,0.5,White,"{'age': '23', 'race': 'White', 'gender': 'Female', 'feedback': 'Given the shape we were provided and knew the correct answer of, I made an educated guess as to which light/dark cylinder/cube was a blinket.', 'ethnicity': 'Non-Hispanic', 'other_race': '', 'other_gender': ''}",56345,dark,147486,exit_survey,16,survey-html-form,
764,color_off,26,0.025,Non-Hispanic,I went with what I remembered.,Male,0.0-12.0,0.5,Multiracial,"{'age': '26', 'race': 'Multiracial', 'gender': 'Male', 'feedback': 'I went with what I remembered.', 'ethnicity': 'Non-Hispanic', 'other_race': '', 'other_gender': ''}",18534,light,445569,exit_survey,16,survey-html-form,
790,color_off,32,0.05,,"I feel like the last part of this trial went very quickly, but I just based my guess on the first bliket that was shown to me.",Female,0.0-12.0,1,White,"{'age': '32', 'race': 'White', 'gender': 'Female', 'feedback': 'I feel like the last part of this trial went very quickly, but I just based my guess on the first bliket that was shown to me.', 'other_race': '', 'other_gender': ''}",47169,dark,209436,exit_survey,16,survey-html-form,
755,color_off,36,0.05,Non-Hispanic,Nope,Male,0.0-12.0,1,White African,"{'age': '36', 'race': 'other_race', 'gender': 'Male', 'feedback': 'Nope', 'ethnicity': 'Non-Hispanic', 'other_race': 'White African', 'other_gender': ''}",16665,dark,116192,exit_survey,16,survey-html-form,
752,color_off,59,0.025,Non-Hispanic,honestly I was just guessing,Male,0.0-12.0,0.5,White,"{'age': '59', 'race': 'White', 'gender': 'Male', 'feedback': 'honestly I was just guessing', 'ethnicity': 'Non-Hispanic', 'other_race': '', 'other_gender': ''}",49373,dark,207130,exit_survey,16,survey-html-form,
831,color_off,27,0.025,Hispanic,I was just guessing based on the prompt ,Female,0.0-12.0,0.5,Multiracial,"{'age': '27', 'race': 'Multiracial', 'gender': 'Female', 'feedback': 'I was just guessing based on the prompt ', 'ethnicity': 'Hispanic', 'other_race': '', 'other_gender': ''}",23088,dark,99519,exit_survey,16,survey-html-form,
847,color_off,23,0,Non-Hispanic,none,Male,0.0-12.0,0,Asian,"{'age': '23', 'race': 'Asian', 'gender': 'Male', 'feedback': 'none', 'ethnicity': 'Non-Hispanic', 'other_race': '', 'other_gender': ''}",17556,light,133380,exit_survey,16,survey-html-form,
838,shape_off,23,0.05,Hispanic,,Male,0.0-12.0,1,Hispanic,"{'age': '23', 'race': 'other_race', 'gender': 'Male', 'feedback': '', 'ethnicity': 'Hispanic', 'other_race': 'Hispanic', 'other_gender': ''}",25843,cylinder,167622,exit_survey,22,survey-html-form,
756,shape_off,20,0.05,Non-Hispanic,no,Female,0.0-12.0,1,White,"{'age': '20', 'race': 'White', 'gender': 'Female', 'feedback': 'no', 'ethnicity': 'Non-Hispanic', 'other_race': '', 'other_gender': ''}",9719,cylinder,94746,exit_survey,28,survey-html-form,
776,shape_off,30,0.025,Non-Hispanic,,Female,0.0-12.0,0.5,White,"{'age': '30', 'race': 'White', 'gender': 'Female', 'feedback': '', 'ethnicity': 'Non-Hispanic', 'other_race': '', 'other_gender': ''}",12466,cube,202107,exit_survey,16,survey-html-form,
785,shape_off,27,0.05,Non-Hispanic,Same Object ,Female,0.0-12.0,1,White,"{'age': '27', 'race': 'White', 'gender': 'Female', 'feedback': 'Same Object ', 'ethnicity': 'Non-Hispanic', 'other_race': '', 'other_gender': ''}",17967,cube,173360,exit_survey,22,survey-html-form,
825,shape_off,34,0.05,Non-Hispanic,i just guessed,Male,0.0-12.0,1,White,"{'age': '34', 'race': 'White', 'gender': 'Male', 'feedback': 'i just guessed', 'ethnicity': 'Non-Hispanic', 'other_race': '', 'other_gender': ''}",12660,cube,126409,exit_survey,16,survey-html-form,
739,shape_off,23,0.05,Non-Hispanic,I decided to go with cubes as Blickets.,Female,0.0-12.0,1,White,"{'age': '23', 'race': 'White', 'gender': 'Female', 'feedback': 'I decided to go with cubes as Blickets.', 'ethnicity': 'Non-Hispanic', 'other_race': '', 'other_gender': ''}",42166,cube,210220,exit_survey,16,survey-html-form,
842,shape_off,23,0.05,Non-Hispanic,I went with my intuition based on the test trials!,Female,0.0-12.0,1,Black/African American,"{'age': '23', 'race': 'Black/African American', 'gender': 'Female', 'feedback': 'I went with my intuition based on the test trials!', 'ethnicity': 'Non-Hispanic', 'other_race': '', 'other_gender': ''}",28649,cube,108637,exit_survey,22,survey-html-form,
846,shape_off,32,0,Non-Hispanic,,,0.0-12.0,0,White,"{'age': '32', 'race': 'White', 'feedback': '', 'ethnicity': 'Non-Hispanic', 'other_race': '', 'other_gender': ''}",10071,cube,82005,exit_survey,16,survey-html-form,
789,shape_off,32,0.025,Non-Hispanic,Disappointed that there weren't enough trials to actively logic out the rules of blicketts,Female,0.0-12.0,0.5,White,"{'age': '32', 'race': 'White', 'gender': 'Female', 'feedback': ""Disappointed that there weren't enough trials to actively logic out the rules of blicketts"", 'ethnicity': 'Non-Hispanic', 'other_race': '', 'other_gender': ''}",40582,cylinder,147928,exit_survey,16,survey-html-form,
726,shape_off,20,0,Hispanic,,Female,0.0-12.0,0,White,"{'age': '20', 'race': 'White', 'gender': 'Female', 'feedback': '', 'ethnicity': 'Hispanic', 'other_race': '', 'other_gender': ''}",15506,cylinder,109190,exit_survey,16,survey-html-form,
806,shape_off,38,0.025,Non-Hispanic,I figured since one darker shape was a blicket the other must be too. ,Female,0.0-12.0,0.5,White,"{'age': '38', 'race': 'White', 'gender': 'Female', 'feedback': 'I figured since one darker shape was a blicket the other must be too. ', 'ethnicity': 'Non-Hispanic', 'other_race': '', 'other_gender': ''}",26069,cylinder,116388,exit_survey,16,survey-html-form,
822,shape_off,34,0.025,Non-Hispanic,I wasn't sure how to respond as the light or dark indications didn't state whether the objects would be a blicket or not depending on the shade.,Female,0.0-12.0,0.5,Black/African American,"{'age': '34', 'race': 'Black/African American', 'gender': 'Female', 'feedback': ""I wasn't sure how to respond as the light or dark indications didn't state whether the objects would be a blicket or not depending on the shade."", 'ethnicity': 'Non-Hispanic', 'other_race': '', 'other_gender': ''}",56072,cylinder,199950,exit_survey,16,survey-html-form,
830,shape_off,39,0,Non-Hispanic,My response was based on the color and shape of the objects shown.,Female,0.0-12.0,0,White,"{'age': '39', 'race': 'White', 'gender': 'Female', 'feedback': 'My response was based on the color and shape of the objects shown.', 'ethnicity': 'Non-Hispanic', 'other_race': '', 'other_gender': ''}",117206,cylinder,305670,exit_survey,16,survey-html-form,
797,shape_off,56,0.025,Non-Hispanic,I tried to go by what I previously learned about the objects,Female,0.0-12.0,0.5,White,"{'age': '56', 'race': 'White', 'gender': 'Female', 'feedback': 'I tried to go by what I previously learned about the objects', 'ethnicity': 'Non-Hispanic', 'other_race': '', 'other_gender': ''}",42515,cube,149547,exit_survey,16,survey-html-form,
801,shape_off,34,0.05,Non-Hispanic,"I figured the blicketts seemed to have flat tops, and most of the objects initially shown were colorful, so I figured the light ones weren't blicketts",Female,0.0-12.0,1,White,"{'age': '34', 'race': 'White', 'gender': 'Female', 'feedback': ""I figured the blicketts seemed to have flat tops, and most of the objects initially shown were colorful, so I figured the light ones weren't blicketts"", 'ethnicity': 'Non-Hispanic', 'other_race': '', 'other_gender': ''}",41464,cylinder,150606,exit_survey,16,survey-html-form,
771,shape_off,59,0.025,Non-Hispanic,Shapes and color density,Male,0.0-12.0,0.5,Black/African American,"{'age': '59', 'race': 'Black/African American', 'gender': 'Male', 'feedback': 'Shapes and color density', 'ethnicity': 'Non-Hispanic', 'other_race': '', 'other_gender': ''}",39330,cube,405323,exit_survey,28,survey-html-form,
743,shape_off,19,0.05,Hispanic,,Female,0.0-12.0,1,White,"{'age': '19', 'race': 'White', 'gender': 'Female', 'feedback': '', 'ethnicity': 'Hispanic', 'other_race': '', 'other_gender': ''}",16864,cube,156693,exit_survey,28,survey-html-form,
751,shape_off,30,0.025,Non-Hispanic,"shape, color",Female,0.0-12.0,0.5,White,"{'age': '30', 'race': 'White', 'gender': 'Female', 'feedback': 'shape, color', 'ethnicity': 'Non-Hispanic', 'other_race': '', 'other_gender': ''}",17307,cube,159014,exit_survey,22,survey-html-form,
747,shape_off,26,0.025,Non-Hispanic,The shape that worked.,Female,0.0-12.0,0.5,Multiracial,"{'age': '26', 'race': 'Multiracial', 'gender': 'Female', 'feedback': 'The shape that worked.', 'ethnicity': 'Non-Hispanic', 'other_race': '', 'other_gender': ''}",22615,cube,102561,exit_survey,16,survey-html-form,
768,shape_off,40,0.05,Non-Hispanic,Originally I thought that they had a certain number of corners. Then I thought it was the color.,Male,0.0-12.0,1,White,"{'age': '40', 'race': 'White', 'gender': 'Male', 'feedback': 'Originally I thought that they had a certain number of corners. Then I thought it was the color.', 'ethnicity': 'Non-Hispanic', 'other_race': '', 'other_gender': ''}",53982,cube,186690,exit_survey,16,survey-html-form,
809,shape_off,21,0.05,Non-Hispanic,,Female,0.0-12.0,1,White,"{'age': '21', 'race': 'White', 'gender': 'Female', 'feedback': '', 'ethnicity': 'Non-Hispanic', 'other_race': '', 'other_gender': ''}",9870,cube,77922,exit_survey,16,survey-html-form,
813,shape_off,35,0.05,Non-Hispanic,"I decided to go with the blocks with a darker, solid fill instead of the blocks that are light colored or empty.
The initial 2 examples followed the same pattern. Solid or Darker color or ones that appeared to be filled in. ",Male,0.0-12.0,1,White,"{'age': '35', 'race': 'White', 'gender': 'Male', 'feedback': 'I decided to go with the blocks with a darker, solid fill instead of the blocks that are light colored or empty.\nThe initial 2 examples followed the same pattern. Solid or Darker color or ones that appeared to be filled in. ', 'ethnicity': 'Non-Hispanic', 'other_race': '', 'other_gender': ''}",115191,cylinder,241970,exit_survey,16,survey-html-form,
817,shape_off,33,0.05,Non-Hispanic,"I had no outside context, so I decided to see if the first one was a blicket, once it was confirmed, the next one I decided to do the opposite. Aka, pure random guessing. ",Male,0.0-12.0,1,White,"{'age': '33', 'race': 'White', 'gender': 'Male', 'feedback': 'I had no outside context, so I decided to see if the first one was a blicket, once it was confirmed, the next one I decided to do the opposite. Aka, pure random guessing. ', 'ethnicity': 'Non-Hispanic', 'other_race': '', 'other_gender': ''}",59969,cylinder,157060,exit_survey,16,survey-html-form,
849,shape_off,42,0.05,Hispanic,,Male,0.0-12.0,1,White,"{'age': '42', 'race': 'White', 'gender': 'Male', 'feedback': '', 'ethnicity': 'Hispanic', 'other_race': '', 'other_gender': ''}",23430,cylinder,125670,exit_survey,16,survey-html-form,
834,shape_off,24,0.05,Non-Hispanic,no,Female,0.0-12.0,1,White,"{'age': '24', 'race': 'White', 'gender': 'Female', 'feedback': 'no', 'ethnicity': 'Non-Hispanic', 'other_race': '', 'other_gender': ''}",11991,cube,118293,exit_survey,16,survey-html-form,
760,shape_off,27,0.025,Non-Hispanic,I just guessed on the first choice. The second I tried to determine if being the same color meant both shapes were blickets. ,Male,0.0-12.0,0.5,White,"{'age': '27', 'race': 'White', 'gender': 'Male', 'feedback': 'I just guessed on the first choice. The second I tried to determine if being the same color meant both shapes were blickets. ', 'ethnicity': 'Non-Hispanic', 'other_race': '', 'other_gender': ''}",65663,cube,166001,exit_survey,16,survey-html-form,
735,shape_off,39,0,Non-Hispanic,,Female,0.0-12.0,0,White,"{'age': '39', 'race': 'White', 'gender': 'Female', 'feedback': '', 'ethnicity': 'Non-Hispanic', 'other_race': '', 'other_gender': ''}",15208,cube,225849,exit_survey,16,survey-html-form,
763,shape_off,51,0,Non-Hispanic,no,Female,0.0-12.0,0,White,"{'age': '51', 'race': 'White', 'gender': 'Female', 'feedback': 'no', 'ethnicity': 'Non-Hispanic', 'other_race': '', 'other_gender': ''}",15898,cube,148665,exit_survey,16,survey-html-form,
782,shape_off,18,0,Non-Hispanic,,Male,0.0-12.0,0,Asian,"{'age': '18', 'race': 'Asian', 'gender': 'Male', 'feedback': '', 'ethnicity': 'Non-Hispanic', 'other_race': '', 'other_gender': ''}",9568,cylinder,70026,exit_survey,16,survey-html-form,
732,shape_off,68,0.025,Non-Hispanic,The shape of the item.  No comments.,Female,0.0-12.0,0.5,White,"{'age': '68', 'race': 'White', 'gender': 'Female', 'feedback': 'The shape of the item.  No comments.', 'ethnicity': 'Non-Hispanic', 'other_race': '', 'other_gender': ''}",86736,cube,457733,exit_survey,16,survey-html-form,
812,shape_on,34,0.025,Non-Hispanic,just tried to guess and look at features that might indicated a pattern like shape and color,Female,0.0-12.0,0.5,White,"{'age': '34', 'race': 'White', 'gender': 'Female', 'feedback': 'just tried to guess and look at features that might indicated a pattern like shape and color', 'ethnicity': 'Non-Hispanic', 'other_race': '', 'other_gender': ''}",55629,cube,181982,exit_survey,16,survey-html-form,
804,shape_on,58,0.05,Non-Hispanic,"When you asked me if the grey cylinder is a blinket or not, I had to guess.  I assumed it was, so I said 'yes'.  You told me that is correct, therefore I assumed the black cylinder is also a blinket.  ","There are only TWO genders, male and female.  No need to add other choices.",0.0-12.0,1,White,"{'age': '58', 'race': 'White', 'feedback': ""When you asked me if the grey cylinder is a blinket or not, I had to guess.  I assumed it was, so I said 'yes'.  You told me that is correct, therefore I assumed the black cylinder is also a blinket.  "", 'ethnicity': 'Non-Hispanic', 'other_race': '', 'other_gender': 'There are only TWO genders, male and female.  No need to add other choices.'}",240588,cylinder,451511,exit_survey,16,survey-html-form,
742,shape_on,37,0,Non-Hispanic,,Male,0.0-12.0,0,White,"{'age': '37', 'race': 'White', 'gender': 'Male', 'feedback': '', 'ethnicity': 'Non-Hispanic', 'other_race': '', 'other_gender': ''}",9309,cube,312162,exit_survey,28,survey-html-form,
734,shape_on,33,0.05,Non-Hispanic,"the blinket was dark, dark=off so I guessed not a blinket. ",Female,0.0-12.0,1,White,"{'age': '33', 'race': 'White', 'gender': 'Female', 'feedback': 'the blinket was dark, dark=off so I guessed not a blinket. ', 'ethnicity': 'Non-Hispanic', 'other_race': '', 'other_gender': ''}",95290,cylinder,226400,exit_survey,16,survey-html-form,
770,shape_on,23,0,Non-Hispanic,,Male,0.0-12.0,0,Asian,"{'age': '23', 'race': 'Asian', 'gender': 'Male', 'feedback': '', 'ethnicity': 'Non-Hispanic', 'other_race': '', 'other_gender': ''}",6733,cube,92325,exit_survey,16,survey-html-form,
728,shape_on,22,0,Hispanic,I am confused,Female,0.0-12.0,0,White,"{'age': '22', 'race': 'White', 'gender': 'Female', 'feedback': 'I am confused', 'ethnicity': 'Hispanic', 'other_race': '', 'other_gender': ''}",16548,cylinder,254089,exit_survey,16,survey-html-form,
780,shape_on,27,0.025,Non-Hispanic,I was guessing based on the light gray cube not being a blicket,Female,0.0-12.0,0.5,White,"{'age': '27', 'race': 'White', 'gender': 'Female', 'feedback': 'I was guessing based on the light gray cube not being a blicket', 'ethnicity': 'Non-Hispanic', 'other_race': '', 'other_gender': ''}",33964,cylinder,134988,exit_survey,16,survey-html-form,
738,shape_on,28,0.025,Non-Hispanic,"Well when i found out the first darker block was not a blicket, I figured the second lighter figure probably would be. ",Female,0.0-12.0,0.5,White,"{'age': '28', 'race': 'White', 'gender': 'Female', 'feedback': 'Well when i found out the first darker block was not a blicket, I figured the second lighter figure probably would be. ', 'ethnicity': 'Non-Hispanic', 'other_race': '', 'other_gender': ''}",46894,cube,147057,exit_survey,16,survey-html-form,
793,shape_on,33,0.025,Non-Hispanic,,Male,0.0-12.0,0.5,White,"{'age': '33', 'race': 'White', 'gender': 'Male', 'feedback': '', 'ethnicity': 'Non-Hispanic', 'other_race': '', 'other_gender': ''}",11647,cylinder,160805,exit_survey,16,survey-html-form,
796,shape_on,26,0.05,Non-Hispanic,,Female,0.0-12.0,1,White,"{'age': '26', 'race': 'White', 'gender': 'Female', 'feedback': '', 'ethnicity': 'Non-Hispanic', 'other_race': '', 'other_gender': ''}",10740,cube,172144,exit_survey,22,survey-html-form,
800,shape_on,38,0.025,Non-Hispanic,"I am not aware of the factors that influence how I decided to respond. I suppose the instructions, colors, shapes, pre-existing experiences, prejudices, frequency of varying wavelengths of light, hormones, chemicals, sleep or lack thereof, blood sugar levels, etc. are some potential factors that may or may not have influenced how I decided to respond.",Male,0.0-12.0,0.5,White,"{'age': '38', 'race': 'White', 'gender': 'Male', 'feedback': 'I am not aware of the factors that influence how I decided to respond. I suppose the instructions, colors, shapes, pre-existing experiences, prejudices, frequency of varying wavelengths of light, hormones, chemicals, sleep or lack thereof, blood sugar levels, etc. are some potential factors that may or may not have influenced how I decided to respond.', 'ethnicity': 'Non-Hispanic', 'other_race': '', 'other_gender': ''}",148761,cylinder,242770,exit_survey,16,survey-html-form,
766,shape_on,21,0.025,Hispanic,,Male,0.0-12.0,0.5,White,"{'age': '21', 'race': 'White', 'gender': 'Male', 'feedback': '', 'ethnicity': 'Hispanic', 'other_race': '', 'other_gender': ''}",9039,cube,84691,exit_survey,16,survey-html-form,
845,shape_on,45,0.025,,,Female,0.0-12.0,0.5,White,"{'age': '45', 'race': 'White', 'gender': 'Female', 'feedback': '', 'other_race': '', 'other_gender': ''}",8607,cylinder,96132,exit_survey,16,survey-html-form,
750,shape_on,22,0.025,Non-Hispanic,I guessed on the first round and went from there. ,Female,0.0-12.0,0.5,White,"{'age': '22', 'race': 'White', 'gender': 'Female', 'feedback': 'I guessed on the first round and went from there. ', 'ethnicity': 'Non-Hispanic', 'other_race': '', 'other_gender': ''}",19183,cube,134669,exit_survey,22,survey-html-form,
833,shape_on,35,0,Non-Hispanic,,Female,0.0-12.0,0,White,"{'age': '35', 'race': 'White', 'gender': 'Female', 'feedback': '', 'ethnicity': 'Non-Hispanic', 'other_race': '', 'other_gender': ''}",9876,cylinder,127289,exit_survey,16,survey-html-form,
730,shape_on,25,0.05,Non-Hispanic,,Male,0.0-12.0,1,White,"{'age': '25', 'race': 'White', 'gender': 'Male', 'feedback': '', 'ethnicity': 'Non-Hispanic', 'other_race': '', 'other_gender': ''}",11140,cylinder,69828,exit_survey,16,survey-html-form,
758,shape_on,74,0.025,Non-Hispanic,Intuition,Male,0.0-12.0,0.5,White,"{'age': '74', 'race': 'White', 'gender': 'Male', 'feedback': 'Intuition', 'ethnicity': 'Non-Hispanic', 'other_race': '', 'other_gender': ''}",19591,cube,161864,exit_survey,16,survey-html-form,
837,shape_on,60,0.025,Non-Hispanic,"That was insane. You showed me a dark cube, which turned out not to be a blicket, then a dark cylinder, and I never found out whether it was or wasn't, and then you jumped to asking me to categorize all the shapes. What the heck is this experiment design???",Female,0.0-12.0,0.5,White,"{'age': '60', 'race': 'White', 'gender': 'Female', 'feedback': ""That was insane. You showed me a dark cube, which turned out not to be a blicket, then a dark cylinder, and I never found out whether it was or wasn't, and then you jumped to asking me to categorize all the shapes. What the heck is this experiment design???"", 'ethnicity': 'Non-Hispanic', 'other_race': '', 'other_gender': ''}",62412,cylinder,209295,exit_survey,22,survey-html-form,
808,shape_on,40,0.025,Non-Hispanic,,Female,0.0-12.0,0.5,White,"{'age': '40', 'race': 'White', 'gender': 'Female', 'feedback': '', 'ethnicity': 'Non-Hispanic', 'other_race': '', 'other_gender': ''}",14646,cube,100775,exit_survey,16,survey-html-form,
816,shape_on,34,0.05,Non-Hispanic,I tried to match the qualities.,Transgender female,0.0-12.0,1,White,"{'age': '34', 'race': 'White', 'gender': 'other_gender', 'feedback': 'I tried to match the qualities.', 'ethnicity': 'Non-Hispanic', 'other_race': '', 'other_gender': 'Transgender female'}",29043,cylinder,135364,exit_survey,16,survey-html-form,
762,shape_on,26,0.025,Non-Hispanic,NA,Female,0.0-12.0,0.5,White,"{'age': '26', 'race': 'White', 'gender': 'Female', 'feedback': 'NA', 'ethnicity': 'Non-Hispanic', 'other_race': '', 'other_gender': ''}",20582,cube,112353,exit_survey,16,survey-html-form,
841,shape_on,73,0.025,,It was hard to find a system that worked,Male,0.0-12.0,0.5,White,"{'age': '73', 'race': 'White', 'gender': 'Male', 'feedback': 'It was hard to find a system that worked', 'other_race': '', 'other_gender': ''}",37211,cylinder,253991,exit_survey,16,survey-html-form,
775,shape_on,19,0.025,Non-Hispanic,"It was kind of a random choice, I thought it might be more likely the first machine I was shown would be a blicket",Non-binary,0.0-12.0,0.5,White,"{'age': '19', 'race': 'White', 'gender': 'Non-binary', 'feedback': 'It was kind of a random choice, I thought it might be more likely the first machine I was shown would be a blicket', 'ethnicity': 'Non-Hispanic', 'other_race': '', 'other_gender': ''}",53364,cylinder,175183,exit_survey,16,survey-html-form,
821,shape_on,30,0,Non-Hispanic,"It said that the white cylinder wasn't a blinket. Then it asked if the white cube was a blinket but I never got any feedback on my answer. I don't know if this was a glitch or not.

So I figured that I knew at least the white cylinder wasn't a blinket then maybe the two dark shapes would be blinkets and I guess that was wrong too. I feel like I could have made a much more informed choice if I knew if the white cube was a blinket or not",Female,0.0-12.0,0,White,"{'age': '30', 'race': 'White', 'gender': 'Female', 'feedback': ""It said that the white cylinder wasn't a blinket. Then it asked if the white cube was a blinket but I never got any feedback on my answer. I don't know if this was a glitch or not.\n\nSo I figured that I knew at least the white cylinder wasn't a blinket then maybe the two dark shapes would be blinkets and I guess that was wrong too. I feel like I could have made a much more informed choice if I knew if the white cube was a blinket or not"", 'ethnicity': 'Non-Hispanic', 'other_race': '', 'other_gender': ''}",157445,cube,256852,exit_survey,16,survey-html-form,
746,shape_on,31,0.05,Non-Hispanic,,Female,0.0-12.0,1,White,"{'age': '31', 'race': 'White', 'gender': 'Female', 'feedback': '', 'ethnicity': 'Non-Hispanic', 'other_race': '', 'other_gender': ''}",57530,cylinder,134376,exit_survey,16,survey-html-form,
788,shape_on,21,0.025,Non-Hispanic,,Female,0.0-12.0,0.5,Black/African American,"{'age': '21', 'race': 'Black/African American', 'gender': 'Female', 'feedback': '', 'ethnicity': 'Non-Hispanic', 'other_race': '', 'other_gender': ''}",14036,cube,151385,exit_survey,16,survey-html-form,
829,shape_on,26,0.05,Non-Hispanic,Dark vs Light,Female,0.0-12.0,1,White,"{'age': '26', 'race': 'White', 'gender': 'Female', 'feedback': 'Dark vs Light', 'ethnicity': 'Non-Hispanic', 'other_race': '', 'other_gender': ''}",13522,cube,130980,exit_survey,16,survey-html-form,
754,shape_on,20,0,Non-Hispanic,,Female,0.0-12.0,0,White,"{'age': '20', 'race': 'White', 'gender': 'Female', 'feedback': '', 'ethnicity': 'Non-Hispanic', 'other_race': '', 'other_gender': ''}",9909,cylinder,244810,exit_survey,16,survey-html-form,
852,shape_on,32,0.025,Non-Hispanic,i have no comments,Female,0.0-12.0,0.5,White,"{'age': '32', 'race': 'White', 'gender': 'Female', 'feedback': 'i have no comments', 'ethnicity': 'Non-Hispanic', 'other_race': '', 'other_gender': ''}",12246,cylinder,84335,exit_survey,16,survey-html-form,
784,shape_on,52,0.025,Non-Hispanic,,Female,0.0-12.0,0.5,White,"{'age': '52', 'race': 'White', 'gender': 'Female', 'feedback': '', 'ethnicity': 'Non-Hispanic', 'other_race': '', 'other_gender': ''}",13545,cylinder,355391,exit_survey,16,survey-html-form,
