workerid,proliferate.condition,accuracy,accuracy_bool,correct_img,correct_key,correct_response,hidden_img,img_selected,internal_node_id,question_order,response,rt,rule,stimulus,time_elapsed,trial,trial_index,trial_type,error
650,color_on,True,1,,j,on,blicket_images/ls.jpg,,0.0-6.0,,j,2633,light,blicket_images/ls.jpg,55777,blicket,10,image-keyboard-response,
650,color_on,True,1,,f,off,blicket_images/dc.jpg,,0.0-8.0,,f,2022,light,blicket_images/dc.jpg,61329,blicket,12,image-keyboard-response,
650,color_on,True,1,,j,on,blicket_images/ls.jpg,,0.0-10.0,,j,3200,light,blicket_images/ls.jpg,65994,blicket,14,image-keyboard-response,
650,color_on,True,1,,j,on,blicket_images/lc.jpg,,0.0-12.0,,j,1943,light,blicket_images/lc.jpg,68634,blicket,16,image-keyboard-response,
650,color_on,True,1,,j,on,blicket_images/ls.jpg,,0.0-14.0,,j,848,light,blicket_images/ls.jpg,70010,blicket,18,image-keyboard-response,
650,color_on,True,1,,f,off,blicket_images/dc.jpg,,0.0-16.0,,f,671,light,blicket_images/dc.jpg,71266,blicket,20,image-keyboard-response,
650,color_on,True,1,,j,on,blicket_images/lc.jpg,,0.0-18.0,,j,615,light,blicket_images/lc.jpg,72490,blicket,22,image-keyboard-response,
650,color_on,True,1,,f,off,blicket_images/ds.jpg,,0.0-20.0,,f,583,light,blicket_images/ds.jpg,73602,blicket,24,image-keyboard-response,
650,color_on,True,1,,f,off,blicket_images/dc.jpg,,0.0-22.0,,f,583,light,blicket_images/dc.jpg,74705,blicket,26,image-keyboard-response,
650,color_on,True,1,,f,off,blicket_images/ds.jpg,,0.0-24.0,,f,559,light,blicket_images/ds.jpg,75770,blicket,28,image-keyboard-response,
650,color_on,True,1,,j,on,blicket_images/ls.jpg,,0.0-26.0,,j,583,light,blicket_images/ls.jpg,76842,blicket,30,image-keyboard-response,
650,color_on,True,1,,f,off,blicket_images/ds.jpg,,0.0-28.0,,f,543,light,blicket_images/ds.jpg,77914,blicket,32,image-keyboard-response,
650,color_on,True,1,,f,off,blicket_images/dc.jpg,,0.0-30.0,,f,551,light,blicket_images/dc.jpg,78977,blicket,34,image-keyboard-response,
650,color_on,True,1,,j,on,blicket_images/lc.jpg,,0.0-32.0,,j,597,light,blicket_images/lc.jpg,80042,blicket,36,image-keyboard-response,
650,color_on,True,1,,f,off,blicket_images/ds.jpg,,0.0-34.0,,f,559,light,blicket_images/ds.jpg,81073,blicket,38,image-keyboard-response,
650,color_on,True,1,,j,on,blicket_images/ls.jpg,,0.0-36.0,,j,591,light,blicket_images/ls.jpg,82114,blicket,40,image-keyboard-response,
650,color_on,True,1,blicket_images/ls.jpg,,ls,,blicket_images/ls.jpg,0.0-37.0,,ls,3005,light,"Which of these options shows the image from the last trial, that you just saw?",85120,pop_quiz,41,html-button-response,
650,color_on,True,1,,,"['lc', 'ls']",,,0.0-38.0,[0],"['lc', 'ls']",5366,light,,90491,rule_question,42,survey-multi-select,
606,color_on,True,1,,f,off,blicket_images/lc.jpg,,0.0-6.0,,f,5640,dark,blicket_images/lc.jpg,82376,blicket,10,image-keyboard-response,
606,color_on,True,1,,j,on,blicket_images/ds.jpg,,0.0-8.0,,j,2060,dark,blicket_images/ds.jpg,86441,blicket,12,image-keyboard-response,
606,color_on,False,0,,j,on,blicket_images/dc.jpg,,0.0-10.0,,f,2513,dark,blicket_images/dc.jpg,90095,blicket,14,image-keyboard-response,
606,color_on,True,1,,j,on,blicket_images/ds.jpg,,0.0-12.0,,j,1779,dark,blicket_images/ds.jpg,95148,blicket,16,image-keyboard-response,
606,color_on,True,1,,f,off,blicket_images/ls.jpg,,0.0-14.0,,f,1060,dark,blicket_images/ls.jpg,97213,blicket,18,image-keyboard-response,
606,color_on,True,1,,j,on,blicket_images/dc.jpg,,0.0-16.0,,j,725,dark,blicket_images/dc.jpg,98674,blicket,20,image-keyboard-response,
606,color_on,True,1,,j,on,blicket_images/ds.jpg,,0.0-18.0,,j,952,dark,blicket_images/ds.jpg,100233,blicket,22,image-keyboard-response,
606,color_on,True,1,,f,off,blicket_images/lc.jpg,,0.0-20.0,,f,655,dark,blicket_images/lc.jpg,101525,blicket,24,image-keyboard-response,
606,color_on,True,1,,f,off,blicket_images/ls.jpg,,0.0-22.0,,f,577,dark,blicket_images/ls.jpg,102903,blicket,26,image-keyboard-response,
606,color_on,True,1,,j,on,blicket_images/dc.jpg,,0.0-24.0,,j,823,dark,blicket_images/dc.jpg,104286,blicket,28,image-keyboard-response,
606,color_on,True,1,,f,off,blicket_images/ls.jpg,,0.0-26.0,,f,623,dark,blicket_images/ls.jpg,105574,blicket,30,image-keyboard-response,
606,color_on,True,1,,j,on,blicket_images/dc.jpg,,0.0-28.0,,j,600,dark,blicket_images/dc.jpg,106977,blicket,32,image-keyboard-response,
606,color_on,True,1,,j,on,blicket_images/ds.jpg,,0.0-30.0,,j,597,dark,blicket_images/ds.jpg,108186,blicket,34,image-keyboard-response,
606,color_on,True,1,,f,off,blicket_images/lc.jpg,,0.0-32.0,,f,587,dark,blicket_images/lc.jpg,109408,blicket,36,image-keyboard-response,
606,color_on,True,1,,j,on,blicket_images/ds.jpg,,0.0-34.0,,j,962,dark,blicket_images/ds.jpg,111026,blicket,38,image-keyboard-response,
606,color_on,True,1,,j,on,blicket_images/dc.jpg,,0.0-36.0,,j,571,dark,blicket_images/dc.jpg,112383,blicket,40,image-keyboard-response,
606,color_on,False,0,blicket_images/dc.jpg,,dc,,blicket_images/ds.jpg,0.0-37.0,,ds,8097,dark,"Which of these options shows the image from the last trial, that you just saw?",120482,pop_quiz,41,html-button-response,
606,color_on,True,1,,,"['dc', 'ds']",,,0.0-38.0,[0],"['dc', 'ds']",5530,dark,,126021,rule_question,42,survey-multi-select,
634,color_on,True,1,,j,on,blicket_images/dc.jpg,,0.0-6.0,,j,4413,dark,blicket_images/dc.jpg,59290,blicket,10,image-keyboard-response,
634,color_on,False,0,,f,off,blicket_images/lc.jpg,,0.0-8.0,,j,2692,dark,blicket_images/lc.jpg,63040,blicket,12,image-keyboard-response,
634,color_on,True,1,,f,off,blicket_images/ls.jpg,,0.0-10.0,,f,2128,dark,blicket_images/ls.jpg,66082,blicket,14,image-keyboard-response,
634,color_on,True,1,,f,off,blicket_images/lc.jpg,,0.0-12.0,,f,1010,dark,blicket_images/lc.jpg,67990,blicket,16,image-keyboard-response,
634,color_on,True,1,,j,on,blicket_images/dc.jpg,,0.0-14.0,,j,586,dark,blicket_images/dc.jpg,69559,blicket,18,image-keyboard-response,
634,color_on,True,1,,f,off,blicket_images/lc.jpg,,0.0-16.0,,f,1184,dark,blicket_images/lc.jpg,71280,blicket,20,image-keyboard-response,
634,color_on,True,1,,f,off,blicket_images/ls.jpg,,0.0-18.0,,f,656,dark,blicket_images/ls.jpg,72762,blicket,22,image-keyboard-response,
634,color_on,True,1,,j,on,blicket_images/dc.jpg,,0.0-20.0,,j,691,dark,blicket_images/dc.jpg,74070,blicket,24,image-keyboard-response,
634,color_on,True,1,,j,on,blicket_images/ds.jpg,,0.0-22.0,,j,647,dark,blicket_images/ds.jpg,75206,blicket,26,image-keyboard-response,
634,color_on,True,1,,f,off,blicket_images/ls.jpg,,0.0-24.0,,f,586,dark,blicket_images/ls.jpg,76543,blicket,28,image-keyboard-response,
634,color_on,True,1,,j,on,blicket_images/ds.jpg,,0.0-26.0,,j,575,dark,blicket_images/ds.jpg,77674,blicket,30,image-keyboard-response,
634,color_on,True,1,,f,off,blicket_images/ls.jpg,,0.0-28.0,,f,604,dark,blicket_images/ls.jpg,78937,blicket,32,image-keyboard-response,
634,color_on,True,1,,f,off,blicket_images/lc.jpg,,0.0-30.0,,f,528,dark,blicket_images/lc.jpg,80002,blicket,34,image-keyboard-response,
634,color_on,True,1,,j,on,blicket_images/ds.jpg,,0.0-32.0,,j,520,dark,blicket_images/ds.jpg,81105,blicket,36,image-keyboard-response,
634,color_on,True,1,,f,off,blicket_images/lc.jpg,,0.0-34.0,,f,699,dark,blicket_images/lc.jpg,82441,blicket,38,image-keyboard-response,
634,color_on,True,1,,j,on,blicket_images/dc.jpg,,0.0-36.0,,j,562,dark,blicket_images/dc.jpg,83717,blicket,40,image-keyboard-response,
634,color_on,True,1,blicket_images/dc.jpg,,dc,,blicket_images/dc.jpg,0.0-37.0,,dc,3682,dark,"Which of these options shows the image from the last trial, that you just saw?",87404,pop_quiz,41,html-button-response,
634,color_on,True,1,,,"['dc', 'ds']",,,0.0-38.0,[0],"['dc', 'ds']",4072,dark,,91488,rule_question,42,survey-multi-select,
610,color_on,False,0,,j,on,blicket_images/ls.jpg,,0.0-6.0,,f,5055,light,blicket_images/ls.jpg,54893,blicket,10,image-keyboard-response,
610,color_on,False,0,,j,on,blicket_images/lc.jpg,,0.0-8.0,,f,1191,light,blicket_images/lc.jpg,57276,blicket,12,image-keyboard-response,
610,color_on,True,1,,j,on,blicket_images/ls.jpg,,0.0-10.0,,j,2248,light,blicket_images/ls.jpg,60457,blicket,14,image-keyboard-response,
610,color_on,False,0,,f,off,blicket_images/dc.jpg,,0.0-12.0,,j,1404,light,blicket_images/dc.jpg,62365,blicket,16,image-keyboard-response,
610,color_on,True,1,,f,off,blicket_images/ds.jpg,,0.0-14.0,,f,1276,light,blicket_images/ds.jpg,63802,blicket,18,image-keyboard-response,
610,color_on,True,1,,f,off,blicket_images/dc.jpg,,0.0-16.0,,f,1689,light,blicket_images/dc.jpg,65646,blicket,20,image-keyboard-response,
610,color_on,True,1,,j,on,blicket_images/lc.jpg,,0.0-18.0,,j,1371,light,blicket_images/lc.jpg,67500,blicket,22,image-keyboard-response,
610,color_on,False,0,,f,off,blicket_images/dc.jpg,,0.0-20.0,,j,1029,light,blicket_images/dc.jpg,68942,blicket,24,image-keyboard-response,
610,color_on,True,1,,j,on,blicket_images/lc.jpg,,0.0-22.0,,j,1099,light,blicket_images/lc.jpg,70272,blicket,26,image-keyboard-response,
610,color_on,True,1,,f,off,blicket_images/ds.jpg,,0.0-24.0,,f,712,light,blicket_images/ds.jpg,71437,blicket,28,image-keyboard-response,
610,color_on,False,0,,j,on,blicket_images/ls.jpg,,0.0-26.0,,f,821,light,blicket_images/ls.jpg,72643,blicket,30,image-keyboard-response,
610,color_on,False,0,,f,off,blicket_images/ds.jpg,,0.0-28.0,,j,573,light,blicket_images/ds.jpg,73867,blicket,32,image-keyboard-response,
610,color_on,False,0,,j,on,blicket_images/ls.jpg,,0.0-30.0,,f,701,light,blicket_images/ls.jpg,75419,blicket,34,image-keyboard-response,
610,color_on,False,0,,f,off,blicket_images/dc.jpg,,0.0-32.0,,j,558,light,blicket_images/dc.jpg,76624,blicket,36,image-keyboard-response,
610,color_on,True,1,,j,on,blicket_images/ls.jpg,,0.0-34.0,,j,435,light,blicket_images/ls.jpg,77887,blicket,38,image-keyboard-response,
610,color_on,False,0,,j,on,blicket_images/lc.jpg,,0.0-36.0,,f,444,light,blicket_images/lc.jpg,78653,blicket,40,image-keyboard-response,
610,color_on,False,0,blicket_images/lc.jpg,,lc,,blicket_images/ds.jpg,0.0-37.0,,ds,4518,light,"Which of these options shows the image from the last trial, that you just saw?",83175,pop_quiz,41,html-button-response,
610,color_on,False,0,,,"['lc', 'ls']",,,0.0-38.0,[0],"['dc', 'ds']",7195,light,,90380,rule_question,42,survey-multi-select,
718,color_on,True,1,,j,on,blicket_images/dc.jpg,,0.0-6.0,,j,3273,dark,blicket_images/dc.jpg,51574,blicket,10,image-keyboard-response,
718,color_on,True,1,,j,on,blicket_images/ds.jpg,,0.0-8.0,,j,1361,dark,blicket_images/ds.jpg,55698,blicket,12,image-keyboard-response,
718,color_on,True,1,,f,off,blicket_images/lc.jpg,,0.0-10.0,,f,885,dark,blicket_images/lc.jpg,57637,blicket,14,image-keyboard-response,
718,color_on,True,1,,j,on,blicket_images/dc.jpg,,0.0-12.0,,j,1537,dark,blicket_images/dc.jpg,60684,blicket,16,image-keyboard-response,
718,color_on,True,1,,f,off,blicket_images/lc.jpg,,0.0-14.0,,f,924,dark,blicket_images/lc.jpg,62078,blicket,18,image-keyboard-response,
718,color_on,True,1,,f,off,blicket_images/ls.jpg,,0.0-16.0,,f,746,dark,blicket_images/ls.jpg,63385,blicket,20,image-keyboard-response,
718,color_on,True,1,,j,on,blicket_images/ds.jpg,,0.0-18.0,,j,1416,dark,blicket_images/ds.jpg,65633,blicket,22,image-keyboard-response,
718,color_on,True,1,,j,on,blicket_images/dc.jpg,,0.0-20.0,,j,472,dark,blicket_images/dc.jpg,66650,blicket,24,image-keyboard-response,
718,color_on,True,1,,f,off,blicket_images/ls.jpg,,0.0-22.0,,f,848,dark,blicket_images/ls.jpg,67942,blicket,26,image-keyboard-response,
718,color_on,True,1,,j,on,blicket_images/ds.jpg,,0.0-24.0,,j,1047,dark,blicket_images/ds.jpg,69661,blicket,28,image-keyboard-response,
718,color_on,True,1,,j,on,blicket_images/dc.jpg,,0.0-26.0,,j,483,dark,blicket_images/dc.jpg,70558,blicket,30,image-keyboard-response,
718,color_on,True,1,,j,on,blicket_images/ds.jpg,,0.0-28.0,,j,801,dark,blicket_images/ds.jpg,71715,blicket,32,image-keyboard-response,
718,color_on,True,1,,f,off,blicket_images/lc.jpg,,0.0-30.0,,f,560,dark,blicket_images/lc.jpg,72542,blicket,34,image-keyboard-response,
718,color_on,True,1,,f,off,blicket_images/ls.jpg,,0.0-32.0,,f,495,dark,blicket_images/ls.jpg,73342,blicket,36,image-keyboard-response,
718,color_on,True,1,,f,off,blicket_images/lc.jpg,,0.0-34.0,,f,655,dark,blicket_images/lc.jpg,74342,blicket,38,image-keyboard-response,
718,color_on,True,1,,j,on,blicket_images/ds.jpg,,0.0-36.0,,j,521,dark,blicket_images/ds.jpg,75026,blicket,40,image-keyboard-response,
718,color_on,True,1,blicket_images/ds.jpg,,ds,,blicket_images/ds.jpg,0.0-37.0,,ds,5223,dark,"Which of these options shows the image from the last trial, that you just saw?",80250,pop_quiz,41,html-button-response,
718,color_on,True,1,,,"['dc', 'ds']",,,0.0-38.0,[0],"['dc', 'ds']",4492,dark,,84744,rule_question,42,survey-multi-select,
688,color_on,False,0,,f,off,blicket_images/lc.jpg,,0.0-6.0,,j,4411,dark,blicket_images/lc.jpg,114420,blicket,10,image-keyboard-response,
688,color_on,True,1,,j,on,blicket_images/dc.jpg,,0.0-8.0,,j,3197,dark,blicket_images/dc.jpg,119356,blicket,12,image-keyboard-response,
688,color_on,True,1,,f,off,blicket_images/lc.jpg,,0.0-10.0,,f,2277,dark,blicket_images/lc.jpg,123933,blicket,14,image-keyboard-response,
688,color_on,True,1,,j,on,blicket_images/dc.jpg,,0.0-12.0,,j,1291,dark,blicket_images/dc.jpg,126425,blicket,16,image-keyboard-response,
688,color_on,False,0,,f,off,blicket_images/ls.jpg,,0.0-14.0,,j,1744,dark,blicket_images/ls.jpg,129242,blicket,18,image-keyboard-response,
688,color_on,True,1,,j,on,blicket_images/ds.jpg,,0.0-16.0,,j,1153,dark,blicket_images/ds.jpg,131593,blicket,20,image-keyboard-response,
688,color_on,True,1,,f,off,blicket_images/lc.jpg,,0.0-18.0,,f,2613,dark,blicket_images/lc.jpg,135392,blicket,22,image-keyboard-response,
688,color_on,True,1,,f,off,blicket_images/ls.jpg,,0.0-20.0,,f,984,dark,blicket_images/ls.jpg,137420,blicket,24,image-keyboard-response,
688,color_on,True,1,,j,on,blicket_images/ds.jpg,,0.0-22.0,,j,956,dark,blicket_images/ds.jpg,139475,blicket,26,image-keyboard-response,
688,color_on,True,1,,j,on,blicket_images/dc.jpg,,0.0-24.0,,j,665,dark,blicket_images/dc.jpg,140967,blicket,28,image-keyboard-response,
688,color_on,True,1,,f,off,blicket_images/ls.jpg,,0.0-26.0,,f,800,dark,blicket_images/ls.jpg,142366,blicket,30,image-keyboard-response,
688,color_on,True,1,,j,on,blicket_images/ds.jpg,,0.0-28.0,,j,778,dark,blicket_images/ds.jpg,143678,blicket,32,image-keyboard-response,
688,color_on,True,1,,j,on,blicket_images/dc.jpg,,0.0-30.0,,j,953,dark,blicket_images/dc.jpg,145308,blicket,34,image-keyboard-response,
688,color_on,True,1,,f,off,blicket_images/ls.jpg,,0.0-32.0,,f,727,dark,blicket_images/ls.jpg,146605,blicket,36,image-keyboard-response,
688,color_on,True,1,,f,off,blicket_images/lc.jpg,,0.0-34.0,,f,698,dark,blicket_images/lc.jpg,148216,blicket,38,image-keyboard-response,
688,color_on,True,1,,j,on,blicket_images/dc.jpg,,0.0-36.0,,j,632,dark,blicket_images/dc.jpg,149734,blicket,40,image-keyboard-response,
688,color_on,False,0,blicket_images/dc.jpg,,dc,,blicket_images/lc.jpg,0.0-37.0,,lc,8119,dark,"Which of these options shows the image from the last trial, that you just saw?",157855,pop_quiz,41,html-button-response,
688,color_on,True,1,,,"['dc', 'ds']",,,0.0-38.0,[0],"['dc', 'ds']",6186,dark,,164045,rule_question,42,survey-multi-select,
663,color_on,False,0,,f,off,blicket_images/ls.jpg,,0.0-6.0,,j,8832,dark,blicket_images/ls.jpg,161802,blicket,16,image-keyboard-response,
663,color_on,True,1,,j,on,blicket_images/ds.jpg,,0.0-8.0,,j,2430,dark,blicket_images/ds.jpg,165965,blicket,18,image-keyboard-response,
663,color_on,False,0,,j,on,blicket_images/dc.jpg,,0.0-10.0,,f,3592,dark,blicket_images/dc.jpg,171487,blicket,20,image-keyboard-response,
663,color_on,True,1,,f,off,blicket_images/lc.jpg,,0.0-12.0,,f,1762,dark,blicket_images/lc.jpg,177084,blicket,22,image-keyboard-response,
663,color_on,True,1,,j,on,blicket_images/ds.jpg,,0.0-14.0,,j,3005,dark,blicket_images/ds.jpg,180748,blicket,24,image-keyboard-response,
663,color_on,True,1,,f,off,blicket_images/ls.jpg,,0.0-16.0,,f,1216,dark,blicket_images/ls.jpg,182535,blicket,26,image-keyboard-response,
663,color_on,True,1,,j,on,blicket_images/ds.jpg,,0.0-18.0,,j,1861,dark,blicket_images/ds.jpg,184869,blicket,28,image-keyboard-response,
663,color_on,True,1,,f,off,blicket_images/lc.jpg,,0.0-20.0,,f,1039,dark,blicket_images/lc.jpg,186504,blicket,30,image-keyboard-response,
663,color_on,True,1,,f,off,blicket_images/ls.jpg,,0.0-22.0,,f,1066,dark,blicket_images/ls.jpg,188539,blicket,32,image-keyboard-response,
663,color_on,True,1,,j,on,blicket_images/dc.jpg,,0.0-24.0,,j,1299,dark,blicket_images/dc.jpg,190390,blicket,34,image-keyboard-response,
663,color_on,True,1,,f,off,blicket_images/lc.jpg,,0.0-26.0,,f,897,dark,blicket_images/lc.jpg,192186,blicket,36,image-keyboard-response,
663,color_on,True,1,,j,on,blicket_images/dc.jpg,,0.0-28.0,,j,693,dark,blicket_images/dc.jpg,193357,blicket,38,image-keyboard-response,
663,color_on,True,1,,j,on,blicket_images/ds.jpg,,0.0-30.0,,j,535,dark,blicket_images/ds.jpg,194465,blicket,40,image-keyboard-response,
663,color_on,True,1,,f,off,blicket_images/ls.jpg,,0.0-32.0,,f,714,dark,blicket_images/ls.jpg,195606,blicket,42,image-keyboard-response,
663,color_on,True,1,,f,off,blicket_images/lc.jpg,,0.0-34.0,,f,1565,dark,blicket_images/lc.jpg,197720,blicket,44,image-keyboard-response,
663,color_on,True,1,,j,on,blicket_images/dc.jpg,,0.0-36.0,,j,763,dark,blicket_images/dc.jpg,198934,blicket,46,image-keyboard-response,
663,color_on,False,0,blicket_images/dc.jpg,,dc,,blicket_images/lc.jpg,0.0-37.0,,lc,10550,dark,"Which of these options shows the image from the last trial, that you just saw?",209486,pop_quiz,47,html-button-response,
663,color_on,True,1,,,"['dc', 'ds']",,,0.0-38.0,[0],"['dc', 'ds']",6360,dark,,215851,rule_question,48,survey-multi-select,
710,color_on,True,1,,j,on,blicket_images/ds.jpg,,0.0-6.0,,j,3259,dark,blicket_images/ds.jpg,160361,blicket,10,image-keyboard-response,
710,color_on,True,1,,j,on,blicket_images/dc.jpg,,0.0-8.0,,j,2206,dark,blicket_images/dc.jpg,166437,blicket,12,image-keyboard-response,
710,color_on,True,1,,j,on,blicket_images/ds.jpg,,0.0-10.0,,j,1106,dark,blicket_images/ds.jpg,168854,blicket,14,image-keyboard-response,
710,color_on,True,1,,f,off,blicket_images/ls.jpg,,0.0-12.0,,f,872,dark,blicket_images/ls.jpg,170581,blicket,16,image-keyboard-response,
710,color_on,True,1,,j,on,blicket_images/ds.jpg,,0.0-14.0,,j,1155,dark,blicket_images/ds.jpg,172612,blicket,18,image-keyboard-response,
710,color_on,True,1,,f,off,blicket_images/ls.jpg,,0.0-16.0,,f,896,dark,blicket_images/ls.jpg,174246,blicket,20,image-keyboard-response,
710,color_on,True,1,,j,on,blicket_images/ds.jpg,,0.0-18.0,,j,2244,dark,blicket_images/ds.jpg,177515,blicket,22,image-keyboard-response,
710,color_on,True,1,,j,on,blicket_images/dc.jpg,,0.0-20.0,,j,1155,dark,blicket_images/dc.jpg,179584,blicket,24,image-keyboard-response,
710,color_on,True,1,,f,off,blicket_images/lc.jpg,,0.0-22.0,,f,783,dark,blicket_images/lc.jpg,180985,blicket,26,image-keyboard-response,
710,color_on,True,1,,j,on,blicket_images/dc.jpg,,0.0-24.0,,j,1816,dark,blicket_images/dc.jpg,183663,blicket,28,image-keyboard-response,
710,color_on,True,1,,f,off,blicket_images/lc.jpg,,0.0-26.0,,f,884,dark,blicket_images/lc.jpg,185267,blicket,30,image-keyboard-response,
710,color_on,True,1,,f,off,blicket_images/ls.jpg,,0.0-28.0,,f,881,dark,blicket_images/ls.jpg,186902,blicket,32,image-keyboard-response,
710,color_on,True,1,,f,off,blicket_images/lc.jpg,,0.0-30.0,,f,858,dark,blicket_images/lc.jpg,188412,blicket,34,image-keyboard-response,
710,color_on,True,1,,j,on,blicket_images/dc.jpg,,0.0-32.0,,j,665,dark,blicket_images/dc.jpg,189821,blicket,36,image-keyboard-response,
710,color_on,True,1,,f,off,blicket_images/lc.jpg,,0.0-34.0,,f,886,dark,blicket_images/lc.jpg,191390,blicket,38,image-keyboard-response,
710,color_on,True,1,,j,on,blicket_images/dc.jpg,,0.0-36.0,,j,1557,dark,blicket_images/dc.jpg,193586,blicket,40,image-keyboard-response,
710,color_on,True,1,blicket_images/dc.jpg,,dc,,blicket_images/dc.jpg,0.0-37.0,,dc,8257,dark,"Which of these options shows the image from the last trial, that you just saw?",201847,pop_quiz,41,html-button-response,
710,color_on,True,1,,,"['dc', 'ds']",,,0.0-38.0,[0],"['dc', 'ds']",7039,dark,,208902,rule_question,42,survey-multi-select,
692,color_on,False,0,,f,off,blicket_images/ls.jpg,,0.0-6.0,,j,1889,dark,blicket_images/ls.jpg,93867,blicket,16,image-keyboard-response,
692,color_on,True,1,,j,on,blicket_images/dc.jpg,,0.0-8.0,,j,1417,dark,blicket_images/dc.jpg,96343,blicket,18,image-keyboard-response,
692,color_on,True,1,,j,on,blicket_images/ds.jpg,,0.0-10.0,,j,520,dark,blicket_images/ds.jpg,97541,blicket,20,image-keyboard-response,
692,color_on,True,1,,f,off,blicket_images/lc.jpg,,0.0-12.0,,f,701,dark,blicket_images/lc.jpg,98644,blicket,22,image-keyboard-response,
692,color_on,True,1,,j,on,blicket_images/ds.jpg,,0.0-14.0,,j,551,dark,blicket_images/ds.jpg,99988,blicket,24,image-keyboard-response,
692,color_on,True,1,,f,off,blicket_images/ls.jpg,,0.0-16.0,,f,411,dark,blicket_images/ls.jpg,100730,blicket,26,image-keyboard-response,
692,color_on,True,1,,f,off,blicket_images/lc.jpg,,0.0-18.0,,f,698,dark,blicket_images/lc.jpg,102294,blicket,28,image-keyboard-response,
692,color_on,True,1,,j,on,blicket_images/dc.jpg,,0.0-20.0,,j,640,dark,blicket_images/dc.jpg,103561,blicket,30,image-keyboard-response,
692,color_on,True,1,,j,on,blicket_images/ds.jpg,,0.0-22.0,,j,531,dark,blicket_images/ds.jpg,104484,blicket,32,image-keyboard-response,
692,color_on,True,1,,j,on,blicket_images/dc.jpg,,0.0-24.0,,j,826,dark,blicket_images/dc.jpg,105697,blicket,34,image-keyboard-response,
692,color_on,True,1,,j,on,blicket_images/ds.jpg,,0.0-26.0,,j,666,dark,blicket_images/ds.jpg,106885,blicket,36,image-keyboard-response,
692,color_on,True,1,,f,off,blicket_images/ls.jpg,,0.0-28.0,,f,571,dark,blicket_images/ls.jpg,107924,blicket,38,image-keyboard-response,
692,color_on,True,1,,j,on,blicket_images/dc.jpg,,0.0-30.0,,j,520,dark,blicket_images/dc.jpg,108985,blicket,40,image-keyboard-response,
692,color_on,True,1,,f,off,blicket_images/lc.jpg,,0.0-32.0,,f,541,dark,blicket_images/lc.jpg,109944,blicket,42,image-keyboard-response,
692,color_on,True,1,,f,off,blicket_images/ls.jpg,,0.0-34.0,,f,515,dark,blicket_images/ls.jpg,110781,blicket,44,image-keyboard-response,
692,color_on,True,1,,j,on,blicket_images/ds.jpg,,0.0-36.0,,j,503,dark,blicket_images/ds.jpg,111660,blicket,46,image-keyboard-response,
692,color_on,False,0,blicket_images/ds.jpg,,ds,,blicket_images/dc.jpg,0.0-37.0,,dc,2555,dark,"Which of these options shows the image from the last trial, that you just saw?",114217,pop_quiz,47,html-button-response,
692,color_on,True,1,,,"['dc', 'ds']",,,0.0-38.0,[0],"['dc', 'ds']",3781,dark,,118002,rule_question,48,survey-multi-select,
709,color_on,False,0,,j,on,blicket_images/ds.jpg,,0.0-6.0,,f,1525,dark,blicket_images/ds.jpg,59373,blicket,16,image-keyboard-response,
709,color_on,False,0,,j,on,blicket_images/dc.jpg,,0.0-8.0,,f,774,dark,blicket_images/dc.jpg,61302,blicket,18,image-keyboard-response,
709,color_on,False,0,,j,on,blicket_images/ds.jpg,,0.0-10.0,,f,684,dark,blicket_images/ds.jpg,63029,blicket,20,image-keyboard-response,
709,color_on,True,1,,f,off,blicket_images/ls.jpg,,0.0-12.0,,f,694,dark,blicket_images/ls.jpg,64940,blicket,22,image-keyboard-response,
709,color_on,False,0,,j,on,blicket_images/dc.jpg,,0.0-14.0,,f,618,dark,blicket_images/dc.jpg,66291,blicket,24,image-keyboard-response,
709,color_on,False,0,,f,off,blicket_images/ls.jpg,,0.0-16.0,,j,571,dark,blicket_images/ls.jpg,67676,blicket,26,image-keyboard-response,
709,color_on,True,1,,f,off,blicket_images/lc.jpg,,0.0-18.0,,f,546,dark,blicket_images/lc.jpg,68933,blicket,28,image-keyboard-response,
709,color_on,False,0,,j,on,blicket_images/dc.jpg,,0.0-20.0,,f,36,dark,blicket_images/dc.jpg,69637,blicket,30,image-keyboard-response,
709,color_on,True,1,,f,off,blicket_images/lc.jpg,,0.0-22.0,,f,531,dark,blicket_images/lc.jpg,70541,blicket,32,image-keyboard-response,
709,color_on,True,1,,f,off,blicket_images/ls.jpg,,0.0-24.0,,f,658,dark,blicket_images/ls.jpg,72437,blicket,34,image-keyboard-response,
709,color_on,False,0,,j,on,blicket_images/dc.jpg,,0.0-26.0,,f,578,dark,blicket_images/dc.jpg,73717,blicket,36,image-keyboard-response,
709,color_on,True,1,,f,off,blicket_images/ls.jpg,,0.0-28.0,,f,619,dark,blicket_images/ls.jpg,75189,blicket,38,image-keyboard-response,
709,color_on,False,0,,j,on,blicket_images/ds.jpg,,0.0-30.0,,f,481,dark,blicket_images/ds.jpg,76286,blicket,40,image-keyboard-response,
709,color_on,True,1,,f,off,blicket_images/lc.jpg,,0.0-32.0,,f,442,dark,blicket_images/lc.jpg,77237,blicket,42,image-keyboard-response,
709,color_on,True,1,,f,off,blicket_images/ls.jpg,,0.0-34.0,,f,417,dark,blicket_images/ls.jpg,78110,blicket,44,image-keyboard-response,
709,color_on,False,0,,j,on,blicket_images/dc.jpg,,0.0-36.0,,f,339,dark,blicket_images/dc.jpg,78837,blicket,46,image-keyboard-response,
709,color_on,False,0,blicket_images/dc.jpg,,dc,,blicket_images/ls.jpg,0.0-37.0,,ls,3879,dark,"Which of these options shows the image from the last trial, that you just saw?",82720,pop_quiz,47,html-button-response,
709,color_on,False,0,,,"['dc', 'ds']",,,0.0-38.0,[0],"['dc', 'lc']",5192,dark,,87924,rule_question,48,survey-multi-select,
680,color_on,True,1,,j,on,blicket_images/dc.jpg,,0.0-6.0,,j,5698,dark,blicket_images/dc.jpg,337657,blicket,16,image-keyboard-response,
680,color_on,False,0,,j,on,blicket_images/ds.jpg,,0.0-8.0,,f,1276,dark,blicket_images/ds.jpg,339798,blicket,18,image-keyboard-response,
680,color_on,True,1,,j,on,blicket_images/dc.jpg,,0.0-10.0,,j,1676,dark,blicket_images/dc.jpg,342487,blicket,20,image-keyboard-response,
680,color_on,False,0,,f,off,blicket_images/lc.jpg,,0.0-12.0,,j,1689,dark,blicket_images/lc.jpg,344877,blicket,22,image-keyboard-response,
680,color_on,False,0,,f,off,blicket_images/ls.jpg,,0.0-14.0,,j,1423,dark,blicket_images/ls.jpg,346779,blicket,24,image-keyboard-response,
680,color_on,False,0,,f,off,blicket_images/lc.jpg,,0.0-16.0,,j,936,dark,blicket_images/lc.jpg,348254,blicket,26,image-keyboard-response,
680,color_on,True,1,,f,off,blicket_images/ls.jpg,,0.0-18.0,,f,440,dark,blicket_images/ls.jpg,349136,blicket,28,image-keyboard-response,
680,color_on,True,1,,f,off,blicket_images/lc.jpg,,0.0-20.0,,f,1468,dark,blicket_images/lc.jpg,351137,blicket,30,image-keyboard-response,
680,color_on,True,1,,f,off,blicket_images/ls.jpg,,0.0-22.0,,f,1230,dark,blicket_images/ls.jpg,352936,blicket,32,image-keyboard-response,
680,color_on,True,1,,j,on,blicket_images/ds.jpg,,0.0-24.0,,j,673,dark,blicket_images/ds.jpg,353985,blicket,34,image-keyboard-response,
680,color_on,True,1,,f,off,blicket_images/lc.jpg,,0.0-26.0,,f,566,dark,blicket_images/lc.jpg,354982,blicket,36,image-keyboard-response,
680,color_on,True,1,,j,on,blicket_images/dc.jpg,,0.0-28.0,,j,1012,dark,blicket_images/dc.jpg,356495,blicket,38,image-keyboard-response,
680,color_on,True,1,,f,off,blicket_images/ls.jpg,,0.0-30.0,,f,693,dark,blicket_images/ls.jpg,357719,blicket,40,image-keyboard-response,
680,color_on,True,1,,j,on,blicket_images/ds.jpg,,0.0-32.0,,j,689,dark,blicket_images/ds.jpg,358742,blicket,42,image-keyboard-response,
680,color_on,True,1,,j,on,blicket_images/dc.jpg,,0.0-34.0,,j,741,dark,blicket_images/dc.jpg,359838,blicket,44,image-keyboard-response,
680,color_on,True,1,,j,on,blicket_images/ds.jpg,,0.0-36.0,,j,724,dark,blicket_images/ds.jpg,360906,blicket,46,image-keyboard-response,
680,color_on,True,1,blicket_images/ds.jpg,,ds,,blicket_images/ds.jpg,0.0-37.0,,ds,3870,dark,"Which of these options shows the image from the last trial, that you just saw?",364777,pop_quiz,47,html-button-response,
680,color_on,False,0,,,"['dc', 'ds']",,,0.0-38.0,[0],"['dc', 'ds', 'lc', 'ls']",6703,dark,,371483,rule_question,48,survey-multi-select,
602,color_on,True,1,,f,off,blicket_images/ds.jpg,,0.0-6.0,,f,2012,light,blicket_images/ds.jpg,50505,blicket,10,image-keyboard-response,
602,color_on,True,1,,f,off,blicket_images/dc.jpg,,0.0-8.0,,f,3807,light,blicket_images/dc.jpg,55279,blicket,12,image-keyboard-response,
602,color_on,True,1,,j,on,blicket_images/ls.jpg,,0.0-10.0,,j,1329,light,blicket_images/ls.jpg,57767,blicket,14,image-keyboard-response,
602,color_on,True,1,,f,off,blicket_images/ds.jpg,,0.0-12.0,,f,1021,light,blicket_images/ds.jpg,59699,blicket,16,image-keyboard-response,
602,color_on,True,1,,j,on,blicket_images/lc.jpg,,0.0-14.0,,j,590,light,blicket_images/lc.jpg,60793,blicket,18,image-keyboard-response,
602,color_on,True,1,,f,off,blicket_images/dc.jpg,,0.0-16.0,,f,943,light,blicket_images/dc.jpg,62399,blicket,20,image-keyboard-response,
602,color_on,True,1,,j,on,blicket_images/lc.jpg,,0.0-18.0,,j,650,light,blicket_images/lc.jpg,63826,blicket,22,image-keyboard-response,
602,color_on,True,1,,f,off,blicket_images/ds.jpg,,0.0-20.0,,f,863,light,blicket_images/ds.jpg,65211,blicket,24,image-keyboard-response,
602,color_on,True,1,,j,on,blicket_images/lc.jpg,,0.0-22.0,,j,760,light,blicket_images/lc.jpg,66408,blicket,26,image-keyboard-response,
602,color_on,True,1,,j,on,blicket_images/ls.jpg,,0.0-24.0,,j,908,light,blicket_images/ls.jpg,67759,blicket,28,image-keyboard-response,
602,color_on,True,1,,f,off,blicket_images/dc.jpg,,0.0-26.0,,f,573,light,blicket_images/dc.jpg,68764,blicket,30,image-keyboard-response,
602,color_on,True,1,,f,off,blicket_images/ds.jpg,,0.0-28.0,,f,1221,light,blicket_images/ds.jpg,70985,blicket,32,image-keyboard-response,
602,color_on,True,1,,j,on,blicket_images/ls.jpg,,0.0-30.0,,j,603,light,blicket_images/ls.jpg,72013,blicket,34,image-keyboard-response,
602,color_on,True,1,,j,on,blicket_images/lc.jpg,,0.0-32.0,,j,588,light,blicket_images/lc.jpg,73198,blicket,36,image-keyboard-response,
602,color_on,True,1,,f,off,blicket_images/ds.jpg,,0.0-34.0,,f,601,light,blicket_images/ds.jpg,74345,blicket,38,image-keyboard-response,
602,color_on,True,1,,j,on,blicket_images/ls.jpg,,0.0-36.0,,j,794,light,blicket_images/ls.jpg,75825,blicket,40,image-keyboard-response,
602,color_on,False,0,blicket_images/ls.jpg,,ls,,blicket_images/dc.jpg,0.0-37.0,,dc,17266,light,"Which of these options shows the image from the last trial, that you just saw?",93094,pop_quiz,41,html-button-response,
602,color_on,True,1,,,"['lc', 'ls']",,,0.0-38.0,[0],"['lc', 'ls']",6372,light,,99472,rule_question,42,survey-multi-select,
638,color_on,False,0,,f,off,blicket_images/ls.jpg,,0.0-6.0,,j,2275,dark,blicket_images/ls.jpg,78994,blicket,16,image-keyboard-response,
638,color_on,False,0,,j,on,blicket_images/dc.jpg,,0.0-8.0,,f,2214,dark,blicket_images/dc.jpg,83834,blicket,18,image-keyboard-response,
638,color_on,True,1,,j,on,blicket_images/ds.jpg,,0.0-10.0,,j,3053,dark,blicket_images/ds.jpg,90859,blicket,20,image-keyboard-response,
638,color_on,True,1,,f,off,blicket_images/ls.jpg,,0.0-12.0,,f,1359,dark,blicket_images/ls.jpg,94588,blicket,22,image-keyboard-response,
638,color_on,False,0,,f,off,blicket_images/lc.jpg,,0.0-14.0,,j,1176,dark,blicket_images/lc.jpg,96991,blicket,24,image-keyboard-response,
638,color_on,False,0,,j,on,blicket_images/ds.jpg,,0.0-16.0,,f,2284,dark,blicket_images/ds.jpg,100534,blicket,26,image-keyboard-response,
638,color_on,False,0,,f,off,blicket_images/lc.jpg,,0.0-18.0,,j,4261,dark,blicket_images/lc.jpg,106743,blicket,28,image-keyboard-response,
638,color_on,False,0,,j,on,blicket_images/dc.jpg,,0.0-20.0,,f,1677,dark,blicket_images/dc.jpg,109581,blicket,30,image-keyboard-response,
638,color_on,True,1,,j,on,blicket_images/ds.jpg,,0.0-22.0,,j,1446,dark,blicket_images/ds.jpg,111910,blicket,32,image-keyboard-response,
638,color_on,True,1,,f,off,blicket_images/ls.jpg,,0.0-24.0,,f,2539,dark,blicket_images/ls.jpg,115132,blicket,34,image-keyboard-response,
638,color_on,False,0,,j,on,blicket_images/dc.jpg,,0.0-26.0,,f,2242,dark,blicket_images/dc.jpg,118268,blicket,36,image-keyboard-response,
638,color_on,True,1,,f,off,blicket_images/lc.jpg,,0.0-28.0,,f,2679,dark,blicket_images/lc.jpg,121858,blicket,38,image-keyboard-response,
638,color_on,True,1,,j,on,blicket_images/ds.jpg,,0.0-30.0,,j,991,dark,blicket_images/ds.jpg,123769,blicket,40,image-keyboard-response,
638,color_on,True,1,,f,off,blicket_images/ls.jpg,,0.0-32.0,,f,852,dark,blicket_images/ls.jpg,125938,blicket,42,image-keyboard-response,
638,color_on,True,1,,f,off,blicket_images/lc.jpg,,0.0-34.0,,f,1064,dark,blicket_images/lc.jpg,128001,blicket,44,image-keyboard-response,
638,color_on,True,1,,j,on,blicket_images/dc.jpg,,0.0-36.0,,j,1051,dark,blicket_images/dc.jpg,129724,blicket,46,image-keyboard-response,
638,color_on,True,1,blicket_images/dc.jpg,,dc,,blicket_images/dc.jpg,0.0-37.0,,dc,4692,dark,"Which of these options shows the image from the last trial, that you just saw?",134419,pop_quiz,47,html-button-response,
638,color_on,True,1,,,"['dc', 'ds']",,,0.0-38.0,[0],"['dc', 'ds']",5423,dark,,139850,rule_question,48,survey-multi-select,
700,color_on,True,1,,j,on,blicket_images/lc.jpg,,0.0-6.0,,j,2348,light,blicket_images/lc.jpg,75252,blicket,10,image-keyboard-response,
700,color_on,True,1,,j,on,blicket_images/ls.jpg,,0.0-8.0,,j,1478,light,blicket_images/ls.jpg,80616,blicket,12,image-keyboard-response,
700,color_on,True,1,,f,off,blicket_images/ds.jpg,,0.0-10.0,,f,1609,light,blicket_images/ds.jpg,83738,blicket,14,image-keyboard-response,
700,color_on,True,1,,f,off,blicket_images/dc.jpg,,0.0-12.0,,f,1052,light,blicket_images/dc.jpg,85620,blicket,16,image-keyboard-response,
700,color_on,True,1,,j,on,blicket_images/ls.jpg,,0.0-14.0,,j,3282,light,blicket_images/ls.jpg,89471,blicket,18,image-keyboard-response,
700,color_on,True,1,,f,off,blicket_images/ds.jpg,,0.0-16.0,,f,1407,light,blicket_images/ds.jpg,91993,blicket,20,image-keyboard-response,
700,color_on,True,1,,j,on,blicket_images/ls.jpg,,0.0-18.0,,j,1346,light,blicket_images/ls.jpg,93889,blicket,22,image-keyboard-response,
700,color_on,True,1,,f,off,blicket_images/ds.jpg,,0.0-20.0,,f,1097,light,blicket_images/ds.jpg,95454,blicket,24,image-keyboard-response,
700,color_on,True,1,,j,on,blicket_images/lc.jpg,,0.0-22.0,,j,1524,light,blicket_images/lc.jpg,97519,blicket,26,image-keyboard-response,
700,color_on,True,1,,f,off,blicket_images/ds.jpg,,0.0-24.0,,f,1137,light,blicket_images/ds.jpg,99021,blicket,28,image-keyboard-response,
700,color_on,True,1,,f,off,blicket_images/dc.jpg,,0.0-26.0,,f,1894,light,blicket_images/dc.jpg,101595,blicket,30,image-keyboard-response,
700,color_on,True,1,,j,on,blicket_images/lc.jpg,,0.0-28.0,,j,1041,light,blicket_images/lc.jpg,102873,blicket,32,image-keyboard-response,
700,color_on,True,1,,f,off,blicket_images/dc.jpg,,0.0-30.0,,f,978,light,blicket_images/dc.jpg,104242,blicket,34,image-keyboard-response,
700,color_on,True,1,,j,on,blicket_images/ls.jpg,,0.0-32.0,,j,895,light,blicket_images/ls.jpg,105478,blicket,36,image-keyboard-response,
700,color_on,True,1,,f,off,blicket_images/ds.jpg,,0.0-34.0,,f,1132,light,blicket_images/ds.jpg,106910,blicket,38,image-keyboard-response,
700,color_on,True,1,,j,on,blicket_images/lc.jpg,,0.0-36.0,,j,1069,light,blicket_images/lc.jpg,108279,blicket,40,image-keyboard-response,
700,color_on,True,1,blicket_images/lc.jpg,,lc,,blicket_images/lc.jpg,0.0-37.0,,lc,8887,light,"Which of these options shows the image from the last trial, that you just saw?",117171,pop_quiz,41,html-button-response,
700,color_on,True,1,,,"['lc', 'ls']",,,0.0-38.0,[0],"['lc', 'ls']",6366,light,,123553,rule_question,42,survey-multi-select,
642,color_on,False,0,,f,off,blicket_images/dc.jpg,,0.0-6.0,,j,5776,light,blicket_images/dc.jpg,164510,blicket,10,image-keyboard-response,
642,color_on,False,0,,f,off,blicket_images/ds.jpg,,0.0-8.0,,j,4967,light,blicket_images/ds.jpg,185886,blicket,12,image-keyboard-response,
642,color_on,True,1,,f,off,blicket_images/dc.jpg,,0.0-10.0,,f,6243,light,blicket_images/dc.jpg,203025,blicket,14,image-keyboard-response,
642,color_on,True,1,,f,off,blicket_images/ds.jpg,,0.0-12.0,,f,4253,light,blicket_images/ds.jpg,210192,blicket,16,image-keyboard-response,
642,color_on,True,1,,j,on,blicket_images/ls.jpg,,0.0-14.0,,j,3400,light,blicket_images/ls.jpg,215665,blicket,18,image-keyboard-response,
642,color_on,True,1,,j,on,blicket_images/lc.jpg,,0.0-16.0,,j,2983,light,blicket_images/lc.jpg,230614,blicket,20,image-keyboard-response,
642,color_on,True,1,,j,on,blicket_images/ls.jpg,,0.0-18.0,,j,4104,light,blicket_images/ls.jpg,243931,blicket,22,image-keyboard-response,
642,color_on,True,1,,f,off,blicket_images/ds.jpg,,0.0-20.0,,f,5856,light,blicket_images/ds.jpg,251498,blicket,24,image-keyboard-response,
642,color_on,True,1,,j,on,blicket_images/lc.jpg,,0.0-22.0,,j,4283,light,blicket_images/lc.jpg,256918,blicket,26,image-keyboard-response,
642,color_on,True,1,,j,on,blicket_images/ls.jpg,,0.0-24.0,,j,2512,light,blicket_images/ls.jpg,261398,blicket,28,image-keyboard-response,
642,color_on,True,1,,f,off,blicket_images/dc.jpg,,0.0-26.0,,f,2398,light,blicket_images/dc.jpg,265022,blicket,30,image-keyboard-response,
642,color_on,True,1,,j,on,blicket_images/ls.jpg,,0.0-28.0,,j,1605,light,blicket_images/ls.jpg,268126,blicket,32,image-keyboard-response,
642,color_on,True,1,,f,off,blicket_images/ds.jpg,,0.0-30.0,,f,2807,light,blicket_images/ds.jpg,271846,blicket,34,image-keyboard-response,
642,color_on,True,1,,j,on,blicket_images/lc.jpg,,0.0-32.0,,j,2950,light,blicket_images/lc.jpg,275758,blicket,36,image-keyboard-response,
642,color_on,True,1,,f,off,blicket_images/dc.jpg,,0.0-34.0,,f,1391,light,blicket_images/dc.jpg,278037,blicket,38,image-keyboard-response,
642,color_on,True,1,,j,on,blicket_images/ls.jpg,,0.0-36.0,,j,2071,light,blicket_images/ls.jpg,280757,blicket,40,image-keyboard-response,
642,color_on,True,1,blicket_images/ls.jpg,,ls,,blicket_images/ls.jpg,0.0-37.0,,ls,8163,light,"Which of these options shows the image from the last trial, that you just saw?",288923,pop_quiz,41,html-button-response,
642,color_on,True,1,,,"['lc', 'ls']",,,0.0-38.0,[0],"['lc', 'ls']",8679,light,,297614,rule_question,42,survey-multi-select,
684,color_on,False,0,,j,on,blicket_images/dc.jpg,,0.0-6.0,,f,4910,dark,blicket_images/dc.jpg,52293,blicket,10,image-keyboard-response,
684,color_on,True,1,,j,on,blicket_images/ds.jpg,,0.0-8.0,,j,1342,dark,blicket_images/ds.jpg,55677,blicket,12,image-keyboard-response,
684,color_on,True,1,,f,off,blicket_images/ls.jpg,,0.0-10.0,,f,1311,dark,blicket_images/ls.jpg,57844,blicket,14,image-keyboard-response,
684,color_on,True,1,,j,on,blicket_images/ds.jpg,,0.0-12.0,,j,1045,dark,blicket_images/ds.jpg,59831,blicket,16,image-keyboard-response,
684,color_on,True,1,,f,off,blicket_images/ls.jpg,,0.0-14.0,,f,979,dark,blicket_images/ls.jpg,61597,blicket,18,image-keyboard-response,
684,color_on,True,1,,j,on,blicket_images/dc.jpg,,0.0-16.0,,j,434,dark,blicket_images/dc.jpg,62987,blicket,20,image-keyboard-response,
684,color_on,True,1,,f,off,blicket_images/lc.jpg,,0.0-18.0,,f,527,dark,blicket_images/lc.jpg,64155,blicket,22,image-keyboard-response,
684,color_on,True,1,,f,off,blicket_images/ls.jpg,,0.0-20.0,,f,679,dark,blicket_images/ls.jpg,65447,blicket,24,image-keyboard-response,
684,color_on,True,1,,j,on,blicket_images/dc.jpg,,0.0-22.0,,j,494,dark,blicket_images/dc.jpg,66423,blicket,26,image-keyboard-response,
684,color_on,True,1,,j,on,blicket_images/ds.jpg,,0.0-24.0,,j,764,dark,blicket_images/ds.jpg,67648,blicket,28,image-keyboard-response,
684,color_on,True,1,,f,off,blicket_images/lc.jpg,,0.0-26.0,,f,594,dark,blicket_images/lc.jpg,68809,blicket,30,image-keyboard-response,
684,color_on,True,1,,f,off,blicket_images/ls.jpg,,0.0-28.0,,f,656,dark,blicket_images/ls.jpg,70025,blicket,32,image-keyboard-response,
684,color_on,True,1,,j,on,blicket_images/dc.jpg,,0.0-30.0,,j,590,dark,blicket_images/dc.jpg,71174,blicket,34,image-keyboard-response,
684,color_on,True,1,,f,off,blicket_images/lc.jpg,,0.0-32.0,,f,580,dark,blicket_images/lc.jpg,72813,blicket,36,image-keyboard-response,
684,color_on,True,1,,j,on,blicket_images/ds.jpg,,0.0-34.0,,j,803,dark,blicket_images/ds.jpg,74241,blicket,38,image-keyboard-response,
684,color_on,True,1,,j,on,blicket_images/dc.jpg,,0.0-36.0,,j,722,dark,blicket_images/dc.jpg,75386,blicket,40,image-keyboard-response,
684,color_on,True,1,blicket_images/dc.jpg,,dc,,blicket_images/dc.jpg,0.0-37.0,,dc,7545,dark,"Which of these options shows the image from the last trial, that you just saw?",82934,pop_quiz,41,html-button-response,
684,color_on,True,1,,,"['dc', 'ds']",,,0.0-38.0,[0],"['dc', 'ds']",4513,dark,,87453,rule_question,42,survey-multi-select,
706,color_on,True,1,,j,on,blicket_images/lc.jpg,,0.0-6.0,,j,975,light,blicket_images/lc.jpg,55147,blicket,10,image-keyboard-response,
706,color_on,False,0,,f,off,blicket_images/dc.jpg,,0.0-8.0,,j,815,light,blicket_images/dc.jpg,57163,blicket,12,image-keyboard-response,
706,color_on,True,1,,f,off,blicket_images/ds.jpg,,0.0-10.0,,f,1519,light,blicket_images/ds.jpg,59914,blicket,14,image-keyboard-response,
706,color_on,True,1,,j,on,blicket_images/lc.jpg,,0.0-12.0,,j,735,light,blicket_images/lc.jpg,61322,blicket,16,image-keyboard-response,
706,color_on,True,1,,f,off,blicket_images/ds.jpg,,0.0-14.0,,f,559,light,blicket_images/ds.jpg,62522,blicket,18,image-keyboard-response,
706,color_on,True,1,,j,on,blicket_images/ls.jpg,,0.0-16.0,,j,1039,light,blicket_images/ls.jpg,64186,blicket,20,image-keyboard-response,
706,color_on,True,1,,f,off,blicket_images/ds.jpg,,0.0-18.0,,f,719,light,blicket_images/ds.jpg,65514,blicket,22,image-keyboard-response,
706,color_on,True,1,,j,on,blicket_images/ls.jpg,,0.0-20.0,,j,1023,light,blicket_images/ls.jpg,67210,blicket,24,image-keyboard-response,
706,color_on,True,1,,f,off,blicket_images/dc.jpg,,0.0-22.0,,f,781,light,blicket_images/dc.jpg,68554,blicket,26,image-keyboard-response,
706,color_on,True,1,,j,on,blicket_images/ls.jpg,,0.0-24.0,,j,815,light,blicket_images/ls.jpg,69930,blicket,28,image-keyboard-response,
706,color_on,True,1,,f,off,blicket_images/ds.jpg,,0.0-26.0,,f,815,light,blicket_images/ds.jpg,71242,blicket,30,image-keyboard-response,
706,color_on,True,1,,j,on,blicket_images/ls.jpg,,0.0-28.0,,j,815,light,blicket_images/ls.jpg,72618,blicket,32,image-keyboard-response,
706,color_on,True,1,,j,on,blicket_images/lc.jpg,,0.0-30.0,,j,1039,light,blicket_images/lc.jpg,74186,blicket,34,image-keyboard-response,
706,color_on,True,1,,f,off,blicket_images/dc.jpg,,0.0-32.0,,f,719,light,blicket_images/dc.jpg,75482,blicket,36,image-keyboard-response,
706,color_on,True,1,,j,on,blicket_images/lc.jpg,,0.0-34.0,,j,1023,light,blicket_images/lc.jpg,77018,blicket,38,image-keyboard-response,
706,color_on,True,1,,j,on,blicket_images/ls.jpg,,0.0-36.0,,j,783,light,blicket_images/ls.jpg,78490,blicket,40,image-keyboard-response,
706,color_on,False,0,blicket_images/ls.jpg,,ls,,blicket_images/ds.jpg,0.0-37.0,,ds,3959,light,"Which of these options shows the image from the last trial, that you just saw?",82450,pop_quiz,41,html-button-response,
706,color_on,True,1,,,"['lc', 'ls']",,,0.0-38.0,[0],"['lc', 'ls']",4892,light,,87347,rule_question,42,survey-multi-select,
676,color_on,False,0,,f,off,blicket_images/lc.jpg,,0.0-6.0,,j,3000,dark,blicket_images/lc.jpg,49229,blicket,10,image-keyboard-response,
676,color_on,False,0,,j,on,blicket_images/dc.jpg,,0.0-8.0,,f,987,dark,blicket_images/dc.jpg,51158,blicket,12,image-keyboard-response,
676,color_on,True,1,,f,off,blicket_images/ls.jpg,,0.0-10.0,,f,1672,dark,blicket_images/ls.jpg,53531,blicket,14,image-keyboard-response,
676,color_on,True,1,,j,on,blicket_images/dc.jpg,,0.0-12.0,,j,989,dark,blicket_images/dc.jpg,55151,blicket,16,image-keyboard-response,
676,color_on,True,1,,f,off,blicket_images/ls.jpg,,0.0-14.0,,f,1016,dark,blicket_images/ls.jpg,56724,blicket,18,image-keyboard-response,
676,color_on,True,1,,j,on,blicket_images/dc.jpg,,0.0-16.0,,j,785,dark,blicket_images/dc.jpg,58225,blicket,20,image-keyboard-response,
676,color_on,True,1,,f,off,blicket_images/ls.jpg,,0.0-18.0,,f,2485,dark,blicket_images/ls.jpg,61261,blicket,22,image-keyboard-response,
676,color_on,True,1,,j,on,blicket_images/ds.jpg,,0.0-20.0,,j,666,dark,blicket_images/ds.jpg,62381,blicket,24,image-keyboard-response,
676,color_on,True,1,,f,off,blicket_images/ls.jpg,,0.0-22.0,,f,662,dark,blicket_images/ls.jpg,63473,blicket,26,image-keyboard-response,
676,color_on,True,1,,j,on,blicket_images/dc.jpg,,0.0-24.0,,j,486,dark,blicket_images/dc.jpg,64335,blicket,28,image-keyboard-response,
676,color_on,True,1,,f,off,blicket_images/lc.jpg,,0.0-26.0,,f,554,dark,blicket_images/lc.jpg,65322,blicket,30,image-keyboard-response,
676,color_on,True,1,,j,on,blicket_images/ds.jpg,,0.0-28.0,,j,482,dark,blicket_images/ds.jpg,66310,blicket,32,image-keyboard-response,
676,color_on,True,1,,f,off,blicket_images/lc.jpg,,0.0-30.0,,f,497,dark,blicket_images/lc.jpg,67229,blicket,34,image-keyboard-response,
676,color_on,True,1,,j,on,blicket_images/ds.jpg,,0.0-32.0,,j,462,dark,blicket_images/ds.jpg,68232,blicket,36,image-keyboard-response,
676,color_on,True,1,,f,off,blicket_images/lc.jpg,,0.0-34.0,,f,460,dark,blicket_images/lc.jpg,69195,blicket,38,image-keyboard-response,
676,color_on,True,1,,j,on,blicket_images/dc.jpg,,0.0-36.0,,j,350,dark,blicket_images/dc.jpg,69975,blicket,40,image-keyboard-response,
676,color_on,False,0,blicket_images/dc.jpg,,dc,,blicket_images/ls.jpg,0.0-37.0,,ls,3838,dark,"Which of these options shows the image from the last trial, that you just saw?",73816,pop_quiz,41,html-button-response,
676,color_on,True,1,,,"['dc', 'ds']",,,0.0-38.0,[0],"['dc', 'ds']",3626,dark,,77449,rule_question,42,survey-multi-select,
714,color_on,True,1,,j,on,blicket_images/ds.jpg,,0.0-6.0,,j,6764,dark,blicket_images/ds.jpg,181221,blicket,10,image-keyboard-response,
714,color_on,True,1,,f,off,blicket_images/lc.jpg,,0.0-8.0,,f,3237,dark,blicket_images/lc.jpg,187674,blicket,12,image-keyboard-response,
714,color_on,True,1,,f,off,blicket_images/ls.jpg,,0.0-10.0,,f,2142,dark,blicket_images/ls.jpg,191370,blicket,14,image-keyboard-response,
714,color_on,True,1,,j,on,blicket_images/dc.jpg,,0.0-12.0,,j,1424,dark,blicket_images/dc.jpg,193746,blicket,16,image-keyboard-response,
714,color_on,True,1,,f,off,blicket_images/ls.jpg,,0.0-14.0,,f,1617,dark,blicket_images/ls.jpg,196289,blicket,18,image-keyboard-response,
714,color_on,True,1,,j,on,blicket_images/ds.jpg,,0.0-16.0,,j,1105,dark,blicket_images/ds.jpg,197767,blicket,20,image-keyboard-response,
714,color_on,True,1,,f,off,blicket_images/ls.jpg,,0.0-18.0,,f,1281,dark,blicket_images/ls.jpg,199459,blicket,22,image-keyboard-response,
714,color_on,True,1,,f,off,blicket_images/lc.jpg,,0.0-20.0,,f,1063,dark,blicket_images/lc.jpg,201298,blicket,24,image-keyboard-response,
714,color_on,True,1,,j,on,blicket_images/dc.jpg,,0.0-22.0,,j,1208,dark,blicket_images/dc.jpg,202815,blicket,26,image-keyboard-response,
714,color_on,True,1,,f,off,blicket_images/lc.jpg,,0.0-24.0,,f,1338,dark,blicket_images/lc.jpg,204743,blicket,28,image-keyboard-response,
714,color_on,True,1,,f,off,blicket_images/ls.jpg,,0.0-26.0,,f,968,dark,blicket_images/ls.jpg,206521,blicket,30,image-keyboard-response,
714,color_on,True,1,,j,on,blicket_images/ds.jpg,,0.0-28.0,,j,992,dark,blicket_images/ds.jpg,207904,blicket,32,image-keyboard-response,
714,color_on,True,1,,j,on,blicket_images/dc.jpg,,0.0-30.0,,j,1203,dark,blicket_images/dc.jpg,209562,blicket,34,image-keyboard-response,
714,color_on,True,1,,j,on,blicket_images/ds.jpg,,0.0-32.0,,j,842,dark,blicket_images/ds.jpg,210849,blicket,36,image-keyboard-response,
714,color_on,True,1,,f,off,blicket_images/ls.jpg,,0.0-34.0,,f,1191,dark,blicket_images/ls.jpg,212421,blicket,38,image-keyboard-response,
714,color_on,True,1,,j,on,blicket_images/dc.jpg,,0.0-36.0,,j,1193,dark,blicket_images/dc.jpg,214116,blicket,40,image-keyboard-response,
714,color_on,False,0,blicket_images/dc.jpg,,dc,,blicket_images/ds.jpg,0.0-37.0,,ds,18859,dark,"Which of these options shows the image from the last trial, that you just saw?",232983,pop_quiz,41,html-button-response,
714,color_on,False,0,,,"['dc', 'ds']",,,0.0-38.0,[0],['ds'],5356,dark,,238344,rule_question,42,survey-multi-select,
723,color_on,True,1,,j,on,blicket_images/dc.jpg,,0.0-6.0,,j,3198,dark,blicket_images/dc.jpg,131902,blicket,22,image-keyboard-response,
723,color_on,False,0,,f,off,blicket_images/ls.jpg,,0.0-8.0,,j,2564,dark,blicket_images/ls.jpg,135967,blicket,24,image-keyboard-response,
723,color_on,False,0,,f,off,blicket_images/lc.jpg,,0.0-10.0,,j,3192,dark,blicket_images/lc.jpg,140518,blicket,26,image-keyboard-response,
723,color_on,False,0,,f,off,blicket_images/ls.jpg,,0.0-12.0,,j,2150,dark,blicket_images/ls.jpg,143868,blicket,28,image-keyboard-response,
723,color_on,True,1,,j,on,blicket_images/dc.jpg,,0.0-14.0,,j,1933,dark,blicket_images/dc.jpg,146718,blicket,30,image-keyboard-response,
723,color_on,False,0,,j,on,blicket_images/ds.jpg,,0.0-16.0,,f,1738,dark,blicket_images/ds.jpg,149300,blicket,32,image-keyboard-response,
723,color_on,False,0,,j,on,blicket_images/dc.jpg,,0.0-18.0,,f,1247,dark,blicket_images/dc.jpg,152327,blicket,34,image-keyboard-response,
723,color_on,True,1,,f,off,blicket_images/lc.jpg,,0.0-20.0,,f,675,dark,blicket_images/lc.jpg,153996,blicket,36,image-keyboard-response,
723,color_on,True,1,,j,on,blicket_images/ds.jpg,,0.0-22.0,,j,1763,dark,blicket_images/ds.jpg,157305,blicket,38,image-keyboard-response,
723,color_on,True,1,,j,on,blicket_images/dc.jpg,,0.0-24.0,,j,1589,dark,blicket_images/dc.jpg,159906,blicket,40,image-keyboard-response,
723,color_on,True,1,,f,off,blicket_images/lc.jpg,,0.0-26.0,,f,729,dark,blicket_images/lc.jpg,161455,blicket,42,image-keyboard-response,
723,color_on,False,0,,j,on,blicket_images/ds.jpg,,0.0-28.0,,f,1319,dark,blicket_images/ds.jpg,164076,blicket,44,image-keyboard-response,
723,color_on,False,0,,f,off,blicket_images/ls.jpg,,0.0-30.0,,j,753,dark,blicket_images/ls.jpg,166272,blicket,46,image-keyboard-response,
723,color_on,True,1,,j,on,blicket_images/ds.jpg,,0.0-32.0,,j,446,dark,blicket_images/ds.jpg,167533,blicket,48,image-keyboard-response,
723,color_on,True,1,,f,off,blicket_images/lc.jpg,,0.0-34.0,,f,676,dark,blicket_images/lc.jpg,168780,blicket,50,image-keyboard-response,
723,color_on,True,1,,j,on,blicket_images/ds.jpg,,0.0-36.0,,j,477,dark,blicket_images/ds.jpg,169677,blicket,52,image-keyboard-response,
723,color_on,False,0,blicket_images/ds.jpg,,ds,,blicket_images/dc.jpg,0.0-37.0,,dc,4635,dark,"Which of these options shows the image from the last trial, that you just saw?",174316,pop_quiz,53,html-button-response,
723,color_on,False,0,,,"['dc', 'ds']",,,0.0-38.0,[0],['dc'],5517,dark,,179839,rule_question,54,survey-multi-select,
626,color_on,False,0,,f,off,blicket_images/lc.jpg,,0.0-6.0,,j,3347,dark,blicket_images/lc.jpg,82538,blicket,10,image-keyboard-response,
626,color_on,True,1,,j,on,blicket_images/ds.jpg,,0.0-8.0,,j,1429,dark,blicket_images/ds.jpg,91489,blicket,12,image-keyboard-response,
626,color_on,False,0,,f,off,blicket_images/ls.jpg,,0.0-10.0,,j,922,dark,blicket_images/ls.jpg,95759,blicket,14,image-keyboard-response,
626,color_on,True,1,,j,on,blicket_images/ds.jpg,,0.0-12.0,,j,467,dark,blicket_images/ds.jpg,99167,blicket,16,image-keyboard-response,
626,color_on,True,1,,j,on,blicket_images/dc.jpg,,0.0-14.0,,j,1150,dark,blicket_images/dc.jpg,101842,blicket,18,image-keyboard-response,
626,color_on,True,1,,f,off,blicket_images/ls.jpg,,0.0-16.0,,f,767,dark,blicket_images/ls.jpg,103299,blicket,20,image-keyboard-response,
626,color_on,True,1,,f,off,blicket_images/lc.jpg,,0.0-18.0,,f,488,dark,blicket_images/lc.jpg,104378,blicket,22,image-keyboard-response,
626,color_on,True,1,,f,off,blicket_images/ls.jpg,,0.0-20.0,,f,438,dark,blicket_images/ls.jpg,105308,blicket,24,image-keyboard-response,
626,color_on,True,1,,j,on,blicket_images/ds.jpg,,0.0-22.0,,j,543,dark,blicket_images/ds.jpg,106290,blicket,26,image-keyboard-response,
626,color_on,True,1,,j,on,blicket_images/dc.jpg,,0.0-24.0,,j,476,dark,blicket_images/dc.jpg,107244,blicket,28,image-keyboard-response,
626,color_on,True,1,,f,off,blicket_images/ls.jpg,,0.0-26.0,,f,462,dark,blicket_images/ls.jpg,108244,blicket,30,image-keyboard-response,
626,color_on,True,1,,j,on,blicket_images/ds.jpg,,0.0-28.0,,j,898,dark,blicket_images/ds.jpg,109658,blicket,32,image-keyboard-response,
626,color_on,True,1,,j,on,blicket_images/dc.jpg,,0.0-30.0,,j,544,dark,blicket_images/dc.jpg,110611,blicket,34,image-keyboard-response,
626,color_on,True,1,,f,off,blicket_images/lc.jpg,,0.0-32.0,,f,616,dark,blicket_images/lc.jpg,111662,blicket,36,image-keyboard-response,
626,color_on,True,1,,f,off,blicket_images/ls.jpg,,0.0-34.0,,f,565,dark,blicket_images/ls.jpg,112741,blicket,38,image-keyboard-response,
626,color_on,True,1,,j,on,blicket_images/dc.jpg,,0.0-36.0,,j,669,dark,blicket_images/dc.jpg,113953,blicket,40,image-keyboard-response,
626,color_on,True,1,blicket_images/dc.jpg,,dc,,blicket_images/dc.jpg,0.0-37.0,,dc,9579,dark,"Which of these options shows the image from the last trial, that you just saw?",123536,pop_quiz,41,html-button-response,
626,color_on,True,1,,,"['dc', 'ds']",,,0.0-38.0,[0],"['dc', 'ds']",4472,dark,,128012,rule_question,42,survey-multi-select,
671,color_on,False,0,,f,off,blicket_images/dc.jpg,,0.0-6.0,,j,4190,light,blicket_images/dc.jpg,107899,blicket,10,image-keyboard-response,
671,color_on,True,1,,j,on,blicket_images/lc.jpg,,0.0-8.0,,j,3467,light,blicket_images/lc.jpg,115831,blicket,12,image-keyboard-response,
671,color_on,True,1,,f,off,blicket_images/ds.jpg,,0.0-10.0,,f,1423,light,blicket_images/ds.jpg,119566,blicket,14,image-keyboard-response,
671,color_on,True,1,,j,on,blicket_images/ls.jpg,,0.0-12.0,,j,1068,light,blicket_images/ls.jpg,122881,blicket,16,image-keyboard-response,
671,color_on,True,1,,j,on,blicket_images/lc.jpg,,0.0-14.0,,j,2395,light,blicket_images/lc.jpg,127578,blicket,18,image-keyboard-response,
671,color_on,True,1,,j,on,blicket_images/ls.jpg,,0.0-16.0,,j,1526,light,blicket_images/ls.jpg,130825,blicket,20,image-keyboard-response,
671,color_on,True,1,,f,off,blicket_images/dc.jpg,,0.0-18.0,,f,633,light,blicket_images/dc.jpg,133286,blicket,22,image-keyboard-response,
671,color_on,True,1,,f,off,blicket_images/ds.jpg,,0.0-20.0,,f,899,light,blicket_images/ds.jpg,135636,blicket,24,image-keyboard-response,
671,color_on,True,1,,j,on,blicket_images/lc.jpg,,0.0-22.0,,j,639,light,blicket_images/lc.jpg,137404,blicket,26,image-keyboard-response,
671,color_on,True,1,,f,off,blicket_images/dc.jpg,,0.0-24.0,,f,730,light,blicket_images/dc.jpg,139202,blicket,28,image-keyboard-response,
671,color_on,True,1,,j,on,blicket_images/ls.jpg,,0.0-26.0,,j,961,light,blicket_images/ls.jpg,141293,blicket,30,image-keyboard-response,
671,color_on,True,1,,f,off,blicket_images/dc.jpg,,0.0-28.0,,f,713,light,blicket_images/dc.jpg,142822,blicket,32,image-keyboard-response,
671,color_on,True,1,,j,on,blicket_images/lc.jpg,,0.0-30.0,,j,1030,light,blicket_images/lc.jpg,145162,blicket,34,image-keyboard-response,
671,color_on,True,1,,f,off,blicket_images/ds.jpg,,0.0-32.0,,f,573,light,blicket_images/ds.jpg,146341,blicket,36,image-keyboard-response,
671,color_on,True,1,,j,on,blicket_images/ls.jpg,,0.0-34.0,,j,681,light,blicket_images/ls.jpg,147979,blicket,38,image-keyboard-response,
671,color_on,True,1,,j,on,blicket_images/lc.jpg,,0.0-36.0,,j,1225,light,blicket_images/lc.jpg,150080,blicket,40,image-keyboard-response,
671,color_on,True,1,blicket_images/lc.jpg,,lc,,blicket_images/lc.jpg,0.0-37.0,,lc,5402,light,"Which of these options shows the image from the last trial, that you just saw?",155486,pop_quiz,41,html-button-response,
671,color_on,False,0,,,"['lc', 'ls']",,,0.0-38.0,[0],"['dc', 'ds', 'lc', 'ls']",12984,light,,168479,rule_question,42,survey-multi-select,
622,color_on,True,1,,j,on,blicket_images/ds.jpg,,0.0-6.0,,j,5106,dark,blicket_images/ds.jpg,143710,blicket,10,image-keyboard-response,
622,color_on,True,1,,f,off,blicket_images/ls.jpg,,0.0-8.0,,f,2739,dark,blicket_images/ls.jpg,148678,blicket,12,image-keyboard-response,
622,color_on,True,1,,j,on,blicket_images/ds.jpg,,0.0-10.0,,j,4572,dark,blicket_images/ds.jpg,160557,blicket,14,image-keyboard-response,
622,color_on,True,1,,f,off,blicket_images/lc.jpg,,0.0-12.0,,f,3261,dark,blicket_images/lc.jpg,165342,blicket,16,image-keyboard-response,
622,color_on,True,1,,f,off,blicket_images/ls.jpg,,0.0-14.0,,f,2068,dark,blicket_images/ls.jpg,169100,blicket,18,image-keyboard-response,
622,color_on,True,1,,j,on,blicket_images/dc.jpg,,0.0-16.0,,j,1775,dark,blicket_images/dc.jpg,172175,blicket,20,image-keyboard-response,
622,color_on,True,1,,f,off,blicket_images/ls.jpg,,0.0-18.0,,f,1962,dark,blicket_images/ls.jpg,175241,blicket,22,image-keyboard-response,
622,color_on,True,1,,j,on,blicket_images/dc.jpg,,0.0-20.0,,j,2221,dark,blicket_images/dc.jpg,178372,blicket,24,image-keyboard-response,
622,color_on,True,1,,f,off,blicket_images/lc.jpg,,0.0-22.0,,f,2259,dark,blicket_images/lc.jpg,182263,blicket,26,image-keyboard-response,
622,color_on,True,1,,j,on,blicket_images/dc.jpg,,0.0-24.0,,j,2426,dark,blicket_images/dc.jpg,185628,blicket,28,image-keyboard-response,
622,color_on,True,1,,f,off,blicket_images/lc.jpg,,0.0-26.0,,f,824,dark,blicket_images/lc.jpg,188171,blicket,30,image-keyboard-response,
622,color_on,True,1,,j,on,blicket_images/ds.jpg,,0.0-28.0,,j,1550,dark,blicket_images/ds.jpg,190861,blicket,32,image-keyboard-response,
622,color_on,True,1,,f,off,blicket_images/lc.jpg,,0.0-30.0,,f,2648,dark,blicket_images/lc.jpg,194148,blicket,34,image-keyboard-response,
622,color_on,True,1,,j,on,blicket_images/dc.jpg,,0.0-32.0,,j,1997,dark,blicket_images/dc.jpg,198485,blicket,36,image-keyboard-response,
622,color_on,True,1,,f,off,blicket_images/ls.jpg,,0.0-34.0,,f,851,dark,blicket_images/ls.jpg,200588,blicket,38,image-keyboard-response,
622,color_on,True,1,,j,on,blicket_images/ds.jpg,,0.0-36.0,,j,1276,dark,blicket_images/ds.jpg,203737,blicket,40,image-keyboard-response,
622,color_on,False,0,blicket_images/ds.jpg,,ds,,blicket_images/dc.jpg,0.0-37.0,,dc,23352,dark,"Which of these options shows the image from the last trial, that you just saw?",227091,pop_quiz,41,html-button-response,
622,color_on,True,1,,,"['dc', 'ds']",,,0.0-38.0,[0],"['dc', 'ds']",7405,dark,,234499,rule_question,42,survey-multi-select,
618,color_on,True,1,,f,off,blicket_images/dc.jpg,,0.0-6.0,,f,2938,light,blicket_images/dc.jpg,76039,blicket,10,image-keyboard-response,
618,color_on,False,0,,f,off,blicket_images/ds.jpg,,0.0-8.0,,j,5071,light,blicket_images/ds.jpg,96041,blicket,12,image-keyboard-response,
618,color_on,True,1,,j,on,blicket_images/ls.jpg,,0.0-10.0,,j,1591,light,blicket_images/ls.jpg,113587,blicket,14,image-keyboard-response,
618,color_on,True,1,,f,off,blicket_images/ds.jpg,,0.0-12.0,,f,3936,light,blicket_images/ds.jpg,124541,blicket,16,image-keyboard-response,
618,color_on,True,1,,j,on,blicket_images/lc.jpg,,0.0-14.0,,j,1711,light,blicket_images/lc.jpg,127461,blicket,18,image-keyboard-response,
618,color_on,True,1,,j,on,blicket_images/ls.jpg,,0.0-16.0,,j,2144,light,blicket_images/ls.jpg,136279,blicket,20,image-keyboard-response,
618,color_on,True,1,,f,off,blicket_images/dc.jpg,,0.0-18.0,,f,647,light,blicket_images/dc.jpg,137638,blicket,22,image-keyboard-response,
618,color_on,True,1,,j,on,blicket_images/lc.jpg,,0.0-20.0,,j,1327,light,blicket_images/lc.jpg,139527,blicket,24,image-keyboard-response,
618,color_on,True,1,,f,off,blicket_images/ds.jpg,,0.0-22.0,,f,823,light,blicket_images/ds.jpg,140951,blicket,26,image-keyboard-response,
618,color_on,True,1,,j,on,blicket_images/ls.jpg,,0.0-24.0,,j,1368,light,blicket_images/ls.jpg,143071,blicket,28,image-keyboard-response,
618,color_on,True,1,,j,on,blicket_images/lc.jpg,,0.0-26.0,,j,592,light,blicket_images/lc.jpg,144199,blicket,30,image-keyboard-response,
618,color_on,True,1,,f,off,blicket_images/dc.jpg,,0.0-28.0,,f,511,light,blicket_images/dc.jpg,145183,blicket,32,image-keyboard-response,
618,color_on,False,0,,j,on,blicket_images/ls.jpg,,0.0-30.0,,f,496,light,blicket_images/ls.jpg,146288,blicket,34,image-keyboard-response,
618,color_on,True,1,,f,off,blicket_images/dc.jpg,,0.0-32.0,,f,1511,light,blicket_images/dc.jpg,148823,blicket,36,image-keyboard-response,
618,color_on,True,1,,f,off,blicket_images/ds.jpg,,0.0-34.0,,f,503,light,blicket_images/ds.jpg,149592,blicket,38,image-keyboard-response,
618,color_on,True,1,,j,on,blicket_images/ls.jpg,,0.0-36.0,,j,599,light,blicket_images/ls.jpg,150496,blicket,40,image-keyboard-response,
618,color_on,False,0,blicket_images/ls.jpg,,ls,,blicket_images/lc.jpg,0.0-37.0,,lc,6632,light,"Which of these options shows the image from the last trial, that you just saw?",157130,pop_quiz,41,html-button-response,
618,color_on,True,1,,,"['lc', 'ls']",,,0.0-38.0,[0],"['lc', 'ls']",4839,light,,161973,rule_question,42,survey-multi-select,
646,color_on,True,1,,f,off,blicket_images/lc.jpg,,0.0-6.0,,f,2335,dark,blicket_images/lc.jpg,120912,blicket,10,image-keyboard-response,
646,color_on,True,1,,f,off,blicket_images/ls.jpg,,0.0-8.0,,f,1037,dark,blicket_images/ls.jpg,123289,blicket,12,image-keyboard-response,
646,color_on,True,1,,f,off,blicket_images/lc.jpg,,0.0-10.0,,f,2162,dark,blicket_images/lc.jpg,126584,blicket,14,image-keyboard-response,
646,color_on,True,1,,j,on,blicket_images/ds.jpg,,0.0-12.0,,j,1275,dark,blicket_images/ds.jpg,128683,blicket,16,image-keyboard-response,
646,color_on,True,1,,f,off,blicket_images/ls.jpg,,0.0-14.0,,f,1038,dark,blicket_images/ls.jpg,130760,blicket,18,image-keyboard-response,
646,color_on,True,1,,f,off,blicket_images/lc.jpg,,0.0-16.0,,f,1024,dark,blicket_images/lc.jpg,132643,blicket,20,image-keyboard-response,
646,color_on,True,1,,j,on,blicket_images/dc.jpg,,0.0-18.0,,j,1282,dark,blicket_images/dc.jpg,135339,blicket,22,image-keyboard-response,
646,color_on,True,1,,f,off,blicket_images/ls.jpg,,0.0-20.0,,f,839,dark,blicket_images/ls.jpg,136938,blicket,24,image-keyboard-response,
646,color_on,True,1,,j,on,blicket_images/dc.jpg,,0.0-22.0,,j,1448,dark,blicket_images/dc.jpg,139027,blicket,26,image-keyboard-response,
646,color_on,True,1,,f,off,blicket_images/lc.jpg,,0.0-24.0,,f,974,dark,blicket_images/lc.jpg,140904,blicket,28,image-keyboard-response,
646,color_on,True,1,,j,on,blicket_images/dc.jpg,,0.0-26.0,,j,866,dark,blicket_images/dc.jpg,142603,blicket,30,image-keyboard-response,
646,color_on,True,1,,j,on,blicket_images/ds.jpg,,0.0-28.0,,j,2076,dark,blicket_images/ds.jpg,145456,blicket,32,image-keyboard-response,
646,color_on,True,1,,f,off,blicket_images/ls.jpg,,0.0-30.0,,f,1222,dark,blicket_images/ls.jpg,147482,blicket,34,image-keyboard-response,
646,color_on,True,1,,j,on,blicket_images/ds.jpg,,0.0-32.0,,j,1390,dark,blicket_images/ds.jpg,149704,blicket,36,image-keyboard-response,
646,color_on,True,1,,f,off,blicket_images/ls.jpg,,0.0-34.0,,f,1302,dark,blicket_images/ls.jpg,151794,blicket,38,image-keyboard-response,
646,color_on,True,1,,j,on,blicket_images/ds.jpg,,0.0-36.0,,j,1237,dark,blicket_images/ds.jpg,153777,blicket,40,image-keyboard-response,
646,color_on,True,1,blicket_images/ds.jpg,,ds,,blicket_images/ds.jpg,0.0-37.0,,ds,5126,dark,"Which of these options shows the image from the last trial, that you just saw?",158904,pop_quiz,41,html-button-response,
646,color_on,True,1,,,"['dc', 'ds']",,,0.0-38.0,[0],"['dc', 'ds']",6132,dark,,165041,rule_question,42,survey-multi-select,
655,color_on,False,0,,f,off,blicket_images/lc.jpg,,0.0-6.0,,j,3589,dark,blicket_images/lc.jpg,57343,blicket,10,image-keyboard-response,
655,color_on,True,1,,f,off,blicket_images/ls.jpg,,0.0-8.0,,f,1849,dark,blicket_images/ls.jpg,69714,blicket,12,image-keyboard-response,
655,color_on,True,1,,j,on,blicket_images/ds.jpg,,0.0-10.0,,j,865,dark,blicket_images/ds.jpg,78547,blicket,14,image-keyboard-response,
655,color_on,True,1,,j,on,blicket_images/dc.jpg,,0.0-12.0,,j,716,dark,blicket_images/dc.jpg,87170,blicket,16,image-keyboard-response,
655,color_on,True,1,,j,on,blicket_images/ds.jpg,,0.0-14.0,,j,1089,dark,blicket_images/ds.jpg,92295,blicket,18,image-keyboard-response,
655,color_on,True,1,,j,on,blicket_images/dc.jpg,,0.0-16.0,,j,763,dark,blicket_images/dc.jpg,93430,blicket,20,image-keyboard-response,
655,color_on,True,1,,f,off,blicket_images/ls.jpg,,0.0-18.0,,f,727,dark,blicket_images/ls.jpg,94421,blicket,22,image-keyboard-response,
655,color_on,True,1,,f,off,blicket_images/lc.jpg,,0.0-20.0,,f,647,dark,blicket_images/lc.jpg,96240,blicket,24,image-keyboard-response,
655,color_on,True,1,,j,on,blicket_images/dc.jpg,,0.0-22.0,,j,751,dark,blicket_images/dc.jpg,97316,blicket,26,image-keyboard-response,
655,color_on,True,1,,f,off,blicket_images/ls.jpg,,0.0-24.0,,f,1525,dark,blicket_images/ls.jpg,99162,blicket,28,image-keyboard-response,
655,color_on,True,1,,f,off,blicket_images/lc.jpg,,0.0-26.0,,f,1047,dark,blicket_images/lc.jpg,100374,blicket,30,image-keyboard-response,
655,color_on,True,1,,f,off,blicket_images/ls.jpg,,0.0-28.0,,f,844,dark,blicket_images/ls.jpg,101376,blicket,32,image-keyboard-response,
655,color_on,True,1,,j,on,blicket_images/ds.jpg,,0.0-30.0,,j,545,dark,blicket_images/ds.jpg,102205,blicket,34,image-keyboard-response,
655,color_on,True,1,,j,on,blicket_images/dc.jpg,,0.0-32.0,,j,628,dark,blicket_images/dc.jpg,103181,blicket,36,image-keyboard-response,
655,color_on,True,1,,f,off,blicket_images/lc.jpg,,0.0-34.0,,f,525,dark,blicket_images/lc.jpg,103949,blicket,38,image-keyboard-response,
655,color_on,True,1,,j,on,blicket_images/ds.jpg,,0.0-36.0,,j,522,dark,blicket_images/ds.jpg,104627,blicket,40,image-keyboard-response,
655,color_on,False,0,blicket_images/ds.jpg,,ds,,blicket_images/ls.jpg,0.0-37.0,,ls,7299,dark,"Which of these options shows the image from the last trial, that you just saw?",111929,pop_quiz,41,html-button-response,
655,color_on,True,1,,,"['dc', 'ds']",,,0.0-38.0,[0],"['dc', 'ds']",12050,dark,,123987,rule_question,42,survey-multi-select,
696,color_on,False,0,,f,off,blicket_images/dc.jpg,,0.0-6.0,,j,3524,light,blicket_images/dc.jpg,61862,blicket,16,image-keyboard-response,
696,color_on,True,1,,j,on,blicket_images/ls.jpg,,0.0-8.0,,j,2662,light,blicket_images/ls.jpg,65624,blicket,18,image-keyboard-response,
696,color_on,False,0,,f,off,blicket_images/ds.jpg,,0.0-10.0,,j,2053,light,blicket_images/ds.jpg,68357,blicket,20,image-keyboard-response,
696,color_on,True,1,,j,on,blicket_images/ls.jpg,,0.0-12.0,,j,1474,light,blicket_images/ls.jpg,70324,blicket,22,image-keyboard-response,
696,color_on,True,1,,f,off,blicket_images/dc.jpg,,0.0-14.0,,f,1228,light,blicket_images/dc.jpg,72075,blicket,24,image-keyboard-response,
696,color_on,True,1,,f,off,blicket_images/ds.jpg,,0.0-16.0,,f,1754,light,blicket_images/ds.jpg,74317,blicket,26,image-keyboard-response,
696,color_on,True,1,,j,on,blicket_images/lc.jpg,,0.0-18.0,,j,1157,light,blicket_images/lc.jpg,75851,blicket,28,image-keyboard-response,
696,color_on,True,1,,j,on,blicket_images/ls.jpg,,0.0-20.0,,j,2140,light,blicket_images/ls.jpg,78469,blicket,30,image-keyboard-response,
696,color_on,True,1,,f,off,blicket_images/ds.jpg,,0.0-22.0,,f,1157,light,blicket_images/ds.jpg,80336,blicket,32,image-keyboard-response,
696,color_on,True,1,,j,on,blicket_images/lc.jpg,,0.0-24.0,,j,1749,light,blicket_images/lc.jpg,82434,blicket,34,image-keyboard-response,
696,color_on,True,1,,f,off,blicket_images/ds.jpg,,0.0-26.0,,f,621,light,blicket_images/ds.jpg,83693,blicket,36,image-keyboard-response,
696,color_on,True,1,,j,on,blicket_images/lc.jpg,,0.0-28.0,,j,592,light,blicket_images/lc.jpg,84778,blicket,38,image-keyboard-response,
696,color_on,True,1,,f,off,blicket_images/dc.jpg,,0.0-30.0,,f,607,light,blicket_images/dc.jpg,85705,blicket,40,image-keyboard-response,
696,color_on,True,1,,j,on,blicket_images/lc.jpg,,0.0-32.0,,j,620,light,blicket_images/lc.jpg,86616,blicket,42,image-keyboard-response,
696,color_on,True,1,,f,off,blicket_images/dc.jpg,,0.0-34.0,,f,650,light,blicket_images/dc.jpg,87556,blicket,44,image-keyboard-response,
696,color_on,True,1,,j,on,blicket_images/ls.jpg,,0.0-36.0,,j,722,light,blicket_images/ls.jpg,88511,blicket,46,image-keyboard-response,
696,color_on,False,0,blicket_images/ls.jpg,,ls,,blicket_images/lc.jpg,0.0-37.0,,lc,2789,light,"Which of these options shows the image from the last trial, that you just saw?",91302,pop_quiz,47,html-button-response,
696,color_on,True,1,,,"['lc', 'ls']",,,0.0-38.0,[0],"['lc', 'ls']",3123,light,,94429,rule_question,48,survey-multi-select,
614,color_on,False,0,,f,off,blicket_images/lc.jpg,,0.0-6.0,,j,6237,dark,blicket_images/lc.jpg,91044,blicket,10,image-keyboard-response,
614,color_on,False,0,,f,off,blicket_images/ls.jpg,,0.0-8.0,,j,3297,dark,blicket_images/ls.jpg,98246,blicket,12,image-keyboard-response,
614,color_on,True,1,,j,on,blicket_images/dc.jpg,,0.0-10.0,,j,2463,dark,blicket_images/dc.jpg,103352,blicket,14,image-keyboard-response,
614,color_on,True,1,,f,off,blicket_images/ls.jpg,,0.0-12.0,,f,4689,dark,blicket_images/ls.jpg,111224,blicket,16,image-keyboard-response,
614,color_on,True,1,,f,off,blicket_images/lc.jpg,,0.0-14.0,,f,1430,dark,blicket_images/lc.jpg,114260,blicket,18,image-keyboard-response,
614,color_on,True,1,,j,on,blicket_images/dc.jpg,,0.0-16.0,,j,1573,dark,blicket_images/dc.jpg,117294,blicket,20,image-keyboard-response,
614,color_on,True,1,,j,on,blicket_images/ds.jpg,,0.0-18.0,,j,3045,dark,blicket_images/ds.jpg,120740,blicket,22,image-keyboard-response,
614,color_on,True,1,,f,off,blicket_images/lc.jpg,,0.0-20.0,,f,1932,dark,blicket_images/lc.jpg,123425,blicket,24,image-keyboard-response,
614,color_on,True,1,,f,off,blicket_images/ls.jpg,,0.0-22.0,,f,1762,dark,blicket_images/ls.jpg,126122,blicket,26,image-keyboard-response,
614,color_on,True,1,,f,off,blicket_images/lc.jpg,,0.0-24.0,,f,967,dark,blicket_images/lc.jpg,127799,blicket,28,image-keyboard-response,
614,color_on,True,1,,j,on,blicket_images/ds.jpg,,0.0-26.0,,j,2162,dark,blicket_images/ds.jpg,130594,blicket,30,image-keyboard-response,
614,color_on,True,1,,f,off,blicket_images/ls.jpg,,0.0-28.0,,f,1769,dark,blicket_images/ls.jpg,133114,blicket,32,image-keyboard-response,
614,color_on,True,1,,j,on,blicket_images/ds.jpg,,0.0-30.0,,j,1597,dark,blicket_images/ds.jpg,135278,blicket,34,image-keyboard-response,
614,color_on,True,1,,j,on,blicket_images/dc.jpg,,0.0-32.0,,j,1711,dark,blicket_images/dc.jpg,137653,blicket,36,image-keyboard-response,
614,color_on,True,1,,f,off,blicket_images/ls.jpg,,0.0-34.0,,f,2181,dark,blicket_images/ls.jpg,140385,blicket,38,image-keyboard-response,
614,color_on,True,1,,j,on,blicket_images/dc.jpg,,0.0-36.0,,j,1346,dark,blicket_images/dc.jpg,142295,blicket,40,image-keyboard-response,
614,color_on,False,0,blicket_images/dc.jpg,,dc,,blicket_images/ds.jpg,0.0-37.0,,ds,5914,dark,"Which of these options shows the image from the last trial, that you just saw?",148213,pop_quiz,41,html-button-response,
614,color_on,True,1,,,"['dc', 'ds']",,,0.0-38.0,[0],"['dc', 'ds']",5597,dark,,153814,rule_question,42,survey-multi-select,
630,color_on,True,1,,f,off,blicket_images/lc.jpg,,0.0-6.0,,f,5882,dark,blicket_images/lc.jpg,136286,blicket,16,image-keyboard-response,
630,color_on,True,1,,j,on,blicket_images/ds.jpg,,0.0-8.0,,j,3136,dark,blicket_images/ds.jpg,141659,blicket,18,image-keyboard-response,
630,color_on,True,1,,j,on,blicket_images/dc.jpg,,0.0-10.0,,j,3703,dark,blicket_images/dc.jpg,146968,blicket,20,image-keyboard-response,
630,color_on,True,1,,j,on,blicket_images/ds.jpg,,0.0-12.0,,j,3841,dark,blicket_images/ds.jpg,154369,blicket,22,image-keyboard-response,
630,color_on,True,1,,j,on,blicket_images/dc.jpg,,0.0-14.0,,j,3382,dark,blicket_images/dc.jpg,163090,blicket,24,image-keyboard-response,
630,color_on,True,1,,j,on,blicket_images/ds.jpg,,0.0-16.0,,j,2487,dark,blicket_images/ds.jpg,167493,blicket,26,image-keyboard-response,
630,color_on,True,1,,j,on,blicket_images/dc.jpg,,0.0-18.0,,j,1625,dark,blicket_images/dc.jpg,170411,blicket,28,image-keyboard-response,
630,color_on,True,1,,f,off,blicket_images/lc.jpg,,0.0-20.0,,f,1773,dark,blicket_images/lc.jpg,173194,blicket,30,image-keyboard-response,
630,color_on,True,1,,j,on,blicket_images/ds.jpg,,0.0-22.0,,j,3138,dark,blicket_images/ds.jpg,177670,blicket,32,image-keyboard-response,
630,color_on,True,1,,f,off,blicket_images/ls.jpg,,0.0-24.0,,f,1620,dark,blicket_images/ls.jpg,180612,blicket,34,image-keyboard-response,
630,color_on,True,1,,j,on,blicket_images/dc.jpg,,0.0-26.0,,j,1749,dark,blicket_images/dc.jpg,183795,blicket,36,image-keyboard-response,
630,color_on,True,1,,f,off,blicket_images/ls.jpg,,0.0-28.0,,f,2174,dark,blicket_images/ls.jpg,187345,blicket,38,image-keyboard-response,
630,color_on,True,1,,f,off,blicket_images/lc.jpg,,0.0-30.0,,f,1760,dark,blicket_images/lc.jpg,190568,blicket,40,image-keyboard-response,
630,color_on,True,1,,f,off,blicket_images/ls.jpg,,0.0-32.0,,f,1664,dark,blicket_images/ls.jpg,193419,blicket,42,image-keyboard-response,
630,color_on,True,1,,j,on,blicket_images/ds.jpg,,0.0-34.0,,j,1658,dark,blicket_images/ds.jpg,196282,blicket,44,image-keyboard-response,
630,color_on,True,1,,j,on,blicket_images/dc.jpg,,0.0-36.0,,j,1582,dark,blicket_images/dc.jpg,199137,blicket,46,image-keyboard-response,
630,color_on,False,0,blicket_images/dc.jpg,,dc,,blicket_images/ds.jpg,0.0-37.0,,ds,27761,dark,"Which of these options shows the image from the last trial, that you just saw?",226901,pop_quiz,47,html-button-response,
630,color_on,True,1,,,"['dc', 'ds']",,,0.0-38.0,[0],"['dc', 'ds']",4734,dark,,231641,rule_question,48,survey-multi-select,
679,color_off,True,1,,f,off,blicket_images/ls.jpg,,0.0-6.0,,f,5811,dark,blicket_images/ls.jpg,76969,blicket,10,image-keyboard-response,
679,color_off,False,0,,j,on,blicket_images/dc.jpg,,0.0-8.0,,f,5618,dark,blicket_images/dc.jpg,92108,blicket,12,image-keyboard-response,
679,color_off,False,0,,f,off,blicket_images/ls.jpg,,0.0-10.0,,j,1921,dark,blicket_images/ls.jpg,95749,blicket,14,image-keyboard-response,
679,color_off,False,0,,j,on,blicket_images/ds.jpg,,0.0-12.0,,f,926,dark,blicket_images/ds.jpg,98361,blicket,16,image-keyboard-response,
679,color_off,True,1,,f,off,blicket_images/ls.jpg,,0.0-14.0,,f,690,dark,blicket_images/ls.jpg,99940,blicket,18,image-keyboard-response,
679,color_off,False,0,,f,off,blicket_images/lc.jpg,,0.0-16.0,,j,616,dark,blicket_images/lc.jpg,101227,blicket,20,image-keyboard-response,
679,color_off,False,0,,f,off,blicket_images/ls.jpg,,0.0-18.0,,j,722,dark,blicket_images/ls.jpg,102536,blicket,22,image-keyboard-response,
679,color_off,False,0,,f,off,blicket_images/lc.jpg,,0.0-20.0,,j,557,dark,blicket_images/lc.jpg,103611,blicket,24,image-keyboard-response,
679,color_off,False,0,,j,on,blicket_images/dc.jpg,,0.0-22.0,,f,329,dark,blicket_images/dc.jpg,104403,blicket,26,image-keyboard-response,
679,color_off,True,1,,j,on,blicket_images/ds.jpg,,0.0-24.0,,j,527,dark,blicket_images/ds.jpg,105240,blicket,28,image-keyboard-response,
679,color_off,True,1,,f,off,blicket_images/lc.jpg,,0.0-26.0,,f,769,dark,blicket_images/lc.jpg,107591,blicket,30,image-keyboard-response,
679,color_off,True,1,,j,on,blicket_images/ds.jpg,,0.0-28.0,,j,587,dark,blicket_images/ds.jpg,109348,blicket,32,image-keyboard-response,
679,color_off,False,0,,j,on,blicket_images/dc.jpg,,0.0-30.0,,f,813,dark,blicket_images/dc.jpg,111210,blicket,34,image-keyboard-response,
679,color_off,False,0,,f,off,blicket_images/lc.jpg,,0.0-32.0,,j,575,dark,blicket_images/lc.jpg,112679,blicket,36,image-keyboard-response,
679,color_off,False,0,,j,on,blicket_images/ds.jpg,,0.0-34.0,,f,567,dark,blicket_images/ds.jpg,114319,blicket,38,image-keyboard-response,
679,color_off,True,1,,f,off,blicket_images/ls.jpg,,0.0-36.0,,f,686,dark,blicket_images/ls.jpg,116623,blicket,40,image-keyboard-response,
679,color_off,False,0,blicket_images/ls.jpg,,ls,,blicket_images/lc.jpg,0.0-37.0,,lc,5449,dark,"Which of these options shows the image from the last trial, that you just saw?",122074,pop_quiz,41,html-button-response,
679,color_off,False,0,,,"['dc', 'ds']",,,0.0-38.0,[0],"['ds', 'lc']",4370,dark,,126448,rule_question,42,survey-multi-select,
633,color_off,False,0,,f,off,blicket_images/dc.jpg,,0.0-6.0,,j,3150,light,blicket_images/dc.jpg,254792,blicket,16,image-keyboard-response,
633,color_off,False,0,,f,off,blicket_images/ds.jpg,,0.0-8.0,,j,1788,light,blicket_images/ds.jpg,258828,blicket,18,image-keyboard-response,
633,color_off,True,1,,f,off,blicket_images/dc.jpg,,0.0-10.0,,f,1286,light,blicket_images/dc.jpg,261150,blicket,20,image-keyboard-response,
633,color_off,True,1,,j,on,blicket_images/ls.jpg,,0.0-12.0,,j,1336,light,blicket_images/ls.jpg,263513,blicket,22,image-keyboard-response,
633,color_off,False,0,,j,on,blicket_images/lc.jpg,,0.0-14.0,,f,1205,light,blicket_images/lc.jpg,268849,blicket,24,image-keyboard-response,
633,color_off,True,1,,j,on,blicket_images/ls.jpg,,0.0-16.0,,j,932,light,blicket_images/ls.jpg,270586,blicket,26,image-keyboard-response,
633,color_off,True,1,,f,off,blicket_images/dc.jpg,,0.0-18.0,,f,557,light,blicket_images/dc.jpg,271533,blicket,28,image-keyboard-response,
633,color_off,True,1,,f,off,blicket_images/ds.jpg,,0.0-20.0,,f,457,light,blicket_images/ds.jpg,272576,blicket,30,image-keyboard-response,
633,color_off,True,1,,j,on,blicket_images/lc.jpg,,0.0-22.0,,j,610,light,blicket_images/lc.jpg,273641,blicket,32,image-keyboard-response,
633,color_off,True,1,,f,off,blicket_images/ds.jpg,,0.0-24.0,,f,622,light,blicket_images/ds.jpg,274798,blicket,34,image-keyboard-response,
633,color_off,True,1,,j,on,blicket_images/lc.jpg,,0.0-26.0,,j,590,light,blicket_images/lc.jpg,275734,blicket,36,image-keyboard-response,
633,color_off,True,1,,j,on,blicket_images/ls.jpg,,0.0-28.0,,j,634,light,blicket_images/ls.jpg,276635,blicket,38,image-keyboard-response,
633,color_off,True,1,,j,on,blicket_images/lc.jpg,,0.0-30.0,,j,468,light,blicket_images/lc.jpg,277405,blicket,40,image-keyboard-response,
633,color_off,True,1,,f,off,blicket_images/dc.jpg,,0.0-32.0,,f,623,light,blicket_images/dc.jpg,278241,blicket,42,image-keyboard-response,
633,color_off,True,1,,f,off,blicket_images/ds.jpg,,0.0-34.0,,f,441,light,blicket_images/ds.jpg,279100,blicket,44,image-keyboard-response,
633,color_off,True,1,,f,off,blicket_images/dc.jpg,,0.0-36.0,,f,515,light,blicket_images/dc.jpg,279967,blicket,46,image-keyboard-response,
633,color_off,False,0,blicket_images/dc.jpg,,dc,,blicket_images/ds.jpg,0.0-37.0,,ds,5233,light,"Which of these options shows the image from the last trial, that you just saw?",285203,pop_quiz,47,html-button-response,
633,color_off,True,1,,,"['lc', 'ls']",,,0.0-38.0,[0],"['lc', 'ls']",3641,light,,288847,rule_question,48,survey-multi-select,
708,color_off,True,1,,f,off,blicket_images/lc.jpg,,0.0-6.0,,f,1981,dark,blicket_images/lc.jpg,65311,blicket,10,image-keyboard-response,
708,color_off,True,1,,j,on,blicket_images/ds.jpg,,0.0-8.0,,j,1007,dark,blicket_images/ds.jpg,68871,blicket,12,image-keyboard-response,
708,color_off,True,1,,f,off,blicket_images/lc.jpg,,0.0-10.0,,f,824,dark,blicket_images/lc.jpg,71592,blicket,14,image-keyboard-response,
708,color_off,True,1,,f,off,blicket_images/ls.jpg,,0.0-12.0,,f,1086,dark,blicket_images/ls.jpg,73246,blicket,16,image-keyboard-response,
708,color_off,True,1,,j,on,blicket_images/dc.jpg,,0.0-14.0,,j,550,dark,blicket_images/dc.jpg,74862,blicket,18,image-keyboard-response,
708,color_off,True,1,,f,off,blicket_images/ls.jpg,,0.0-16.0,,f,728,dark,blicket_images/ls.jpg,76247,blicket,20,image-keyboard-response,
708,color_off,True,1,,j,on,blicket_images/dc.jpg,,0.0-18.0,,j,559,dark,blicket_images/dc.jpg,77247,blicket,22,image-keyboard-response,
708,color_off,True,1,,j,on,blicket_images/ds.jpg,,0.0-20.0,,j,782,dark,blicket_images/ds.jpg,78495,blicket,24,image-keyboard-response,
708,color_off,True,1,,f,off,blicket_images/ls.jpg,,0.0-22.0,,f,668,dark,blicket_images/ls.jpg,79519,blicket,26,image-keyboard-response,
708,color_off,True,1,,f,off,blicket_images/lc.jpg,,0.0-24.0,,f,511,dark,blicket_images/lc.jpg,80375,blicket,28,image-keyboard-response,
708,color_off,True,1,,j,on,blicket_images/ds.jpg,,0.0-26.0,,j,662,dark,blicket_images/ds.jpg,81575,blicket,30,image-keyboard-response,
708,color_off,True,1,,f,off,blicket_images/lc.jpg,,0.0-28.0,,f,775,dark,blicket_images/lc.jpg,82967,blicket,32,image-keyboard-response,
708,color_off,True,1,,j,on,blicket_images/dc.jpg,,0.0-30.0,,j,735,dark,blicket_images/dc.jpg,84055,blicket,34,image-keyboard-response,
708,color_off,True,1,,f,off,blicket_images/ls.jpg,,0.0-32.0,,f,647,dark,blicket_images/ls.jpg,84967,blicket,36,image-keyboard-response,
708,color_off,True,1,,j,on,blicket_images/ds.jpg,,0.0-34.0,,j,568,dark,blicket_images/ds.jpg,85887,blicket,38,image-keyboard-response,
708,color_off,True,1,,f,off,blicket_images/ls.jpg,,0.0-36.0,,f,600,dark,blicket_images/ls.jpg,86927,blicket,40,image-keyboard-response,
708,color_off,False,0,blicket_images/ls.jpg,,ls,,blicket_images/lc.jpg,0.0-37.0,,lc,87111,dark,"Which of these options shows the image from the last trial, that you just saw?",174039,pop_quiz,41,html-button-response,
708,color_off,True,1,,,"['dc', 'ds']",,,0.0-38.0,[0],"['dc', 'ds']",3533,dark,,177576,rule_question,42,survey-multi-select,
699,color_off,False,0,,j,on,blicket_images/lc.jpg,,0.0-6.0,,f,5713,light,blicket_images/lc.jpg,132868,blicket,10,image-keyboard-response,
699,color_off,False,0,,f,off,blicket_images/ds.jpg,,0.0-8.0,,j,2005,light,blicket_images/ds.jpg,136746,blicket,12,image-keyboard-response,
699,color_off,True,1,,f,off,blicket_images/dc.jpg,,0.0-10.0,,f,1622,light,blicket_images/dc.jpg,142046,blicket,14,image-keyboard-response,
699,color_off,True,1,,j,on,blicket_images/lc.jpg,,0.0-12.0,,j,1103,light,blicket_images/lc.jpg,146465,blicket,16,image-keyboard-response,
699,color_off,True,1,,j,on,blicket_images/ls.jpg,,0.0-14.0,,j,1331,light,blicket_images/ls.jpg,148886,blicket,18,image-keyboard-response,
699,color_off,True,1,,f,off,blicket_images/ds.jpg,,0.0-16.0,,f,770,light,blicket_images/ds.jpg,150387,blicket,20,image-keyboard-response,
699,color_off,True,1,,j,on,blicket_images/ls.jpg,,0.0-18.0,,j,1032,light,blicket_images/ls.jpg,152603,blicket,22,image-keyboard-response,
699,color_off,False,0,,j,on,blicket_images/lc.jpg,,0.0-20.0,,f,1041,light,blicket_images/lc.jpg,154471,blicket,24,image-keyboard-response,
699,color_off,True,1,,f,off,blicket_images/ds.jpg,,0.0-22.0,,f,1375,light,blicket_images/ds.jpg,159005,blicket,26,image-keyboard-response,
699,color_off,True,1,,j,on,blicket_images/ls.jpg,,0.0-24.0,,j,459,light,blicket_images/ls.jpg,160950,blicket,28,image-keyboard-response,
699,color_off,True,1,,f,off,blicket_images/dc.jpg,,0.0-26.0,,f,803,light,blicket_images/dc.jpg,162595,blicket,30,image-keyboard-response,
699,color_off,True,1,,j,on,blicket_images/lc.jpg,,0.0-28.0,,j,529,light,blicket_images/lc.jpg,163769,blicket,32,image-keyboard-response,
699,color_off,True,1,,j,on,blicket_images/ls.jpg,,0.0-30.0,,j,802,light,blicket_images/ls.jpg,165318,blicket,34,image-keyboard-response,
699,color_off,True,1,,f,off,blicket_images/dc.jpg,,0.0-32.0,,f,504,light,blicket_images/dc.jpg,166387,blicket,36,image-keyboard-response,
699,color_off,True,1,,j,on,blicket_images/lc.jpg,,0.0-34.0,,j,484,light,blicket_images/lc.jpg,167683,blicket,38,image-keyboard-response,
699,color_off,True,1,,f,off,blicket_images/ds.jpg,,0.0-36.0,,f,684,light,blicket_images/ds.jpg,168981,blicket,40,image-keyboard-response,
699,color_off,False,0,blicket_images/ds.jpg,,ds,,blicket_images/dc.jpg,0.0-37.0,,dc,7838,light,"Which of these options shows the image from the last trial, that you just saw?",176822,pop_quiz,41,html-button-response,
699,color_off,True,1,,,"['lc', 'ls']",,,0.0-38.0,[0],"['lc', 'ls']",8870,light,,185702,rule_question,42,survey-multi-select,
645,color_off,False,0,,f,off,blicket_images/ls.jpg,,0.0-6.0,,j,5471,dark,blicket_images/ls.jpg,69987,blicket,16,image-keyboard-response,
645,color_off,False,0,,f,off,blicket_images/lc.jpg,,0.0-8.0,,j,2427,dark,blicket_images/lc.jpg,75368,blicket,18,image-keyboard-response,
645,color_off,False,0,,j,on,blicket_images/dc.jpg,,0.0-10.0,,f,677,dark,blicket_images/dc.jpg,76897,blicket,20,image-keyboard-response,
645,color_off,True,1,,j,on,blicket_images/ds.jpg,,0.0-12.0,,j,661,dark,blicket_images/ds.jpg,78546,blicket,22,image-keyboard-response,
645,color_off,False,0,,f,off,blicket_images/lc.jpg,,0.0-14.0,,j,741,dark,blicket_images/lc.jpg,80306,blicket,24,image-keyboard-response,
645,color_off,False,0,,f,off,blicket_images/ls.jpg,,0.0-16.0,,j,479,dark,blicket_images/ls.jpg,81385,blicket,26,image-keyboard-response,
645,color_off,False,0,,j,on,blicket_images/dc.jpg,,0.0-18.0,,f,262,dark,blicket_images/dc.jpg,82097,blicket,28,image-keyboard-response,
645,color_off,False,0,,j,on,blicket_images/ds.jpg,,0.0-20.0,,f,685,dark,blicket_images/ds.jpg,83217,blicket,30,image-keyboard-response,
645,color_off,True,1,,f,off,blicket_images/lc.jpg,,0.0-22.0,,f,253,dark,blicket_images/lc.jpg,83858,blicket,32,image-keyboard-response,
645,color_off,False,0,,j,on,blicket_images/ds.jpg,,0.0-24.0,,f,685,dark,blicket_images/ds.jpg,84882,blicket,34,image-keyboard-response,
645,color_off,True,1,,j,on,blicket_images/dc.jpg,,0.0-26.0,,j,301,dark,blicket_images/dc.jpg,85753,blicket,36,image-keyboard-response,
645,color_off,False,0,,f,off,blicket_images/lc.jpg,,0.0-28.0,,j,1168,dark,blicket_images/lc.jpg,88377,blicket,38,image-keyboard-response,
645,color_off,True,1,,j,on,blicket_images/dc.jpg,,0.0-30.0,,j,981,dark,blicket_images/dc.jpg,90226,blicket,40,image-keyboard-response,
645,color_off,True,1,,f,off,blicket_images/ls.jpg,,0.0-32.0,,f,580,dark,blicket_images/ls.jpg,91546,blicket,42,image-keyboard-response,
645,color_off,False,0,,j,on,blicket_images/ds.jpg,,0.0-34.0,,f,917,dark,blicket_images/ds.jpg,93562,blicket,44,image-keyboard-response,
645,color_off,True,1,,f,off,blicket_images/ls.jpg,,0.0-36.0,,f,885,dark,blicket_images/ls.jpg,95281,blicket,46,image-keyboard-response,
645,color_off,False,0,blicket_images/ls.jpg,,ls,,blicket_images/ds.jpg,0.0-37.0,,ds,7666,dark,"Which of these options shows the image from the last trial, that you just saw?",102953,pop_quiz,47,html-button-response,
645,color_off,False,0,,,"['dc', 'ds']",,,0.0-38.0,[0],['lc'],3400,dark,,106362,rule_question,48,survey-multi-select,
674,color_off,True,1,,j,on,blicket_images/dc.jpg,,0.0-6.0,,j,11142,dark,blicket_images/dc.jpg,185018,blicket,10,image-keyboard-response,
674,color_off,True,1,,f,off,blicket_images/lc.jpg,,0.0-8.0,,f,6435,dark,blicket_images/lc.jpg,199082,blicket,12,image-keyboard-response,
674,color_off,True,1,,j,on,blicket_images/ds.jpg,,0.0-10.0,,j,6773,dark,blicket_images/ds.jpg,218483,blicket,14,image-keyboard-response,
674,color_off,True,1,,f,off,blicket_images/lc.jpg,,0.0-12.0,,f,2326,dark,blicket_images/lc.jpg,226051,blicket,16,image-keyboard-response,
674,color_off,True,1,,j,on,blicket_images/ds.jpg,,0.0-14.0,,j,7523,dark,blicket_images/ds.jpg,237034,blicket,18,image-keyboard-response,
674,color_off,True,1,,j,on,blicket_images/dc.jpg,,0.0-16.0,,j,2269,dark,blicket_images/dc.jpg,242086,blicket,20,image-keyboard-response,
674,color_off,True,1,,f,off,blicket_images/ls.jpg,,0.0-18.0,,f,1885,dark,blicket_images/ls.jpg,246902,blicket,22,image-keyboard-response,
674,color_off,True,1,,j,on,blicket_images/dc.jpg,,0.0-20.0,,j,2550,dark,blicket_images/dc.jpg,252262,blicket,24,image-keyboard-response,
674,color_off,True,1,,j,on,blicket_images/ds.jpg,,0.0-22.0,,j,2237,dark,blicket_images/ds.jpg,257782,blicket,26,image-keyboard-response,
674,color_off,True,1,,f,off,blicket_images/ls.jpg,,0.0-24.0,,f,1110,dark,blicket_images/ls.jpg,261542,blicket,28,image-keyboard-response,
674,color_off,True,1,,f,off,blicket_images/lc.jpg,,0.0-26.0,,f,1229,dark,blicket_images/lc.jpg,265702,blicket,30,image-keyboard-response,
674,color_off,True,1,,f,off,blicket_images/ls.jpg,,0.0-28.0,,f,1133,dark,blicket_images/ls.jpg,267974,blicket,32,image-keyboard-response,
674,color_off,True,1,,j,on,blicket_images/ds.jpg,,0.0-30.0,,j,813,dark,blicket_images/ds.jpg,269830,blicket,34,image-keyboard-response,
674,color_off,True,1,,f,off,blicket_images/lc.jpg,,0.0-32.0,,f,1094,dark,blicket_images/lc.jpg,272774,blicket,36,image-keyboard-response,
674,color_off,True,1,,j,on,blicket_images/ds.jpg,,0.0-34.0,,j,1037,dark,blicket_images/ds.jpg,275782,blicket,38,image-keyboard-response,
674,color_off,True,1,,f,off,blicket_images/lc.jpg,,0.0-36.0,,f,941,dark,blicket_images/lc.jpg,279478,blicket,40,image-keyboard-response,
674,color_off,False,0,blicket_images/lc.jpg,,lc,,blicket_images/ds.jpg,0.0-37.0,,ds,9933,dark,"Which of these options shows the image from the last trial, that you just saw?",289416,pop_quiz,41,html-button-response,
674,color_off,True,1,,,"['dc', 'ds']",,,0.0-38.0,[0],"['dc', 'ds']",7919,dark,,297344,rule_question,42,survey-multi-select,
617,color_off,True,1,,j,on,blicket_images/ls.jpg,,0.0-6.0,,j,2263,light,blicket_images/ls.jpg,51079,blicket,10,image-keyboard-response,
617,color_off,True,1,,f,off,blicket_images/dc.jpg,,0.0-8.0,,f,3448,light,blicket_images/dc.jpg,56423,blicket,12,image-keyboard-response,
617,color_off,False,0,,f,off,blicket_images/ds.jpg,,0.0-10.0,,j,2263,light,blicket_images/ds.jpg,60135,blicket,14,image-keyboard-response,
617,color_off,True,1,,f,off,blicket_images/dc.jpg,,0.0-12.0,,f,1877,light,blicket_images/dc.jpg,63406,blicket,16,image-keyboard-response,
617,color_off,True,1,,j,on,blicket_images/ls.jpg,,0.0-14.0,,j,1311,light,blicket_images/ls.jpg,65790,blicket,18,image-keyboard-response,
617,color_off,True,1,,f,off,blicket_images/dc.jpg,,0.0-16.0,,f,1439,light,blicket_images/dc.jpg,67950,blicket,20,image-keyboard-response,
617,color_off,True,1,,j,on,blicket_images/ls.jpg,,0.0-18.0,,j,1447,light,blicket_images/ls.jpg,70183,blicket,22,image-keyboard-response,
617,color_off,True,1,,f,off,blicket_images/ds.jpg,,0.0-20.0,,f,1592,light,blicket_images/ds.jpg,72398,blicket,24,image-keyboard-response,
617,color_off,True,1,,j,on,blicket_images/ls.jpg,,0.0-22.0,,j,1544,light,blicket_images/ls.jpg,74727,blicket,26,image-keyboard-response,
617,color_off,True,1,,j,on,blicket_images/lc.jpg,,0.0-24.0,,j,1448,light,blicket_images/lc.jpg,76814,blicket,28,image-keyboard-response,
617,color_off,True,1,,f,off,blicket_images/ds.jpg,,0.0-26.0,,f,1648,light,blicket_images/ds.jpg,79391,blicket,30,image-keyboard-response,
617,color_off,True,1,,j,on,blicket_images/lc.jpg,,0.0-28.0,,j,1696,light,blicket_images/lc.jpg,82111,blicket,32,image-keyboard-response,
617,color_off,True,1,,f,off,blicket_images/ds.jpg,,0.0-30.0,,f,1495,light,blicket_images/ds.jpg,84327,blicket,34,image-keyboard-response,
617,color_off,True,1,,j,on,blicket_images/lc.jpg,,0.0-32.0,,j,1367,light,blicket_images/lc.jpg,86271,blicket,36,image-keyboard-response,
617,color_off,True,1,,f,off,blicket_images/dc.jpg,,0.0-34.0,,f,1416,light,blicket_images/dc.jpg,88159,blicket,38,image-keyboard-response,
617,color_off,True,1,,f,off,blicket_images/ds.jpg,,0.0-36.0,,f,1447,light,blicket_images/ds.jpg,90198,blicket,40,image-keyboard-response,
617,color_off,False,0,blicket_images/ds.jpg,,ds,,blicket_images/dc.jpg,0.0-37.0,,dc,2351,light,"Which of these options shows the image from the last trial, that you just saw?",92550,pop_quiz,41,html-button-response,
617,color_off,True,1,,,"['lc', 'ls']",,,0.0-38.0,[0],"['lc', 'ls']",5207,light,,97759,rule_question,42,survey-multi-select,
675,color_off,True,1,,j,on,blicket_images/dc.jpg,,0.0-6.0,,j,5127,dark,blicket_images/dc.jpg,153924,blicket,10,image-keyboard-response,
675,color_off,True,1,,f,off,blicket_images/lc.jpg,,0.0-8.0,,f,4863,dark,blicket_images/lc.jpg,171620,blicket,12,image-keyboard-response,
675,color_off,True,1,,j,on,blicket_images/dc.jpg,,0.0-10.0,,j,5942,dark,blicket_images/dc.jpg,186163,blicket,14,image-keyboard-response,
675,color_off,False,0,,f,off,blicket_images/ls.jpg,,0.0-12.0,,j,5704,dark,blicket_images/ls.jpg,194892,blicket,16,image-keyboard-response,
675,color_off,True,1,,j,on,blicket_images/ds.jpg,,0.0-14.0,,j,3135,dark,blicket_images/ds.jpg,206580,blicket,18,image-keyboard-response,
675,color_off,True,1,,j,on,blicket_images/dc.jpg,,0.0-16.0,,j,2415,dark,blicket_images/dc.jpg,210611,blicket,20,image-keyboard-response,
675,color_off,True,1,,f,off,blicket_images/ls.jpg,,0.0-18.0,,f,2087,dark,blicket_images/ls.jpg,213731,blicket,22,image-keyboard-response,
675,color_off,True,1,,j,on,blicket_images/ds.jpg,,0.0-20.0,,j,1783,dark,blicket_images/ds.jpg,216708,blicket,24,image-keyboard-response,
675,color_off,True,1,,f,off,blicket_images/lc.jpg,,0.0-22.0,,f,1583,dark,blicket_images/lc.jpg,218947,blicket,26,image-keyboard-response,
675,color_off,True,1,,f,off,blicket_images/ls.jpg,,0.0-24.0,,f,2575,dark,blicket_images/ls.jpg,222219,blicket,28,image-keyboard-response,
675,color_off,True,1,,f,off,blicket_images/lc.jpg,,0.0-26.0,,f,1231,dark,blicket_images/lc.jpg,224131,blicket,30,image-keyboard-response,
675,color_off,True,1,,j,on,blicket_images/ds.jpg,,0.0-28.0,,j,2247,dark,blicket_images/ds.jpg,226956,blicket,32,image-keyboard-response,
675,color_off,True,1,,f,off,blicket_images/ls.jpg,,0.0-30.0,,f,1687,dark,blicket_images/ls.jpg,229243,blicket,34,image-keyboard-response,
675,color_off,True,1,,j,on,blicket_images/dc.jpg,,0.0-32.0,,j,1767,dark,blicket_images/dc.jpg,231971,blicket,36,image-keyboard-response,
675,color_off,True,1,,f,off,blicket_images/lc.jpg,,0.0-34.0,,f,1311,dark,blicket_images/lc.jpg,234363,blicket,38,image-keyboard-response,
675,color_off,True,1,,f,off,blicket_images/ls.jpg,,0.0-36.0,,f,975,dark,blicket_images/ls.jpg,236507,blicket,40,image-keyboard-response,
675,color_off,True,1,blicket_images/ls.jpg,,ls,,blicket_images/ls.jpg,0.0-37.0,,ls,9719,dark,"Which of these options shows the image from the last trial, that you just saw?",246228,pop_quiz,41,html-button-response,
675,color_off,True,1,,,"['dc', 'ds']",,,0.0-38.0,[0],"['dc', 'ds']",5452,dark,,251685,rule_question,42,survey-multi-select,
601,color_off,True,1,,f,off,blicket_images/ls.jpg,,0.0-6.0,,f,5116,dark,blicket_images/ls.jpg,71499,blicket,10,image-keyboard-response,
601,color_off,True,1,,j,on,blicket_images/dc.jpg,,0.0-8.0,,j,1889,dark,blicket_images/dc.jpg,74417,blicket,12,image-keyboard-response,
601,color_off,True,1,,f,off,blicket_images/ls.jpg,,0.0-10.0,,f,2837,dark,blicket_images/ls.jpg,78245,blicket,14,image-keyboard-response,
601,color_off,True,1,,j,on,blicket_images/ds.jpg,,0.0-12.0,,j,2986,dark,blicket_images/ds.jpg,82094,blicket,16,image-keyboard-response,
601,color_off,True,1,,f,off,blicket_images/ls.jpg,,0.0-14.0,,f,2958,dark,blicket_images/ls.jpg,85872,blicket,18,image-keyboard-response,
601,color_off,True,1,,f,off,blicket_images/lc.jpg,,0.0-16.0,,f,2008,dark,blicket_images/lc.jpg,88498,blicket,20,image-keyboard-response,
601,color_off,True,1,,j,on,blicket_images/dc.jpg,,0.0-18.0,,j,1421,dark,blicket_images/dc.jpg,90574,blicket,22,image-keyboard-response,
601,color_off,True,1,,f,off,blicket_images/lc.jpg,,0.0-20.0,,f,1684,dark,blicket_images/lc.jpg,92742,blicket,24,image-keyboard-response,
601,color_off,True,1,,f,off,blicket_images/ls.jpg,,0.0-22.0,,f,982,dark,blicket_images/ls.jpg,94193,blicket,26,image-keyboard-response,
601,color_off,True,1,,f,off,blicket_images/lc.jpg,,0.0-24.0,,f,744,dark,blicket_images/lc.jpg,95314,blicket,28,image-keyboard-response,
601,color_off,True,1,,j,on,blicket_images/dc.jpg,,0.0-26.0,,j,649,dark,blicket_images/dc.jpg,96615,blicket,30,image-keyboard-response,
601,color_off,True,1,,j,on,blicket_images/ds.jpg,,0.0-28.0,,j,1622,dark,blicket_images/ds.jpg,98696,blicket,32,image-keyboard-response,
601,color_off,True,1,,j,on,blicket_images/dc.jpg,,0.0-30.0,,j,785,dark,blicket_images/dc.jpg,99953,blicket,34,image-keyboard-response,
601,color_off,True,1,,j,on,blicket_images/ds.jpg,,0.0-32.0,,j,618,dark,blicket_images/ds.jpg,101077,blicket,36,image-keyboard-response,
601,color_off,True,1,,j,on,blicket_images/dc.jpg,,0.0-34.0,,j,795,dark,blicket_images/dc.jpg,102329,blicket,38,image-keyboard-response,
601,color_off,True,1,,f,off,blicket_images/lc.jpg,,0.0-36.0,,f,1061,dark,blicket_images/lc.jpg,103799,blicket,40,image-keyboard-response,
601,color_off,True,1,blicket_images/lc.jpg,,lc,,blicket_images/lc.jpg,0.0-37.0,,lc,3396,dark,"Which of these options shows the image from the last trial, that you just saw?",107197,pop_quiz,41,html-button-response,
601,color_off,True,1,,,"['dc', 'ds']",,,0.0-38.0,[0],"['dc', 'ds']",5607,dark,,112817,rule_question,42,survey-multi-select,
722,color_off,False,0,,f,off,blicket_images/ds.jpg,,0.0-6.0,,j,1256,light,blicket_images/ds.jpg,43067,blicket,10,image-keyboard-response,
722,color_off,True,1,,j,on,blicket_images/ls.jpg,,0.0-8.0,,j,429,light,blicket_images/ls.jpg,44527,blicket,12,image-keyboard-response,
722,color_off,False,0,,f,off,blicket_images/dc.jpg,,0.0-10.0,,j,373,light,blicket_images/dc.jpg,45265,blicket,14,image-keyboard-response,
722,color_off,True,1,,j,on,blicket_images/ls.jpg,,0.0-12.0,,j,196,light,blicket_images/ls.jpg,45770,blicket,16,image-keyboard-response,
722,color_off,True,1,,j,on,blicket_images/lc.jpg,,0.0-14.0,,j,224,light,blicket_images/lc.jpg,46276,blicket,18,image-keyboard-response,
722,color_off,True,1,,j,on,blicket_images/ls.jpg,,0.0-16.0,,j,241,light,blicket_images/ls.jpg,46783,blicket,20,image-keyboard-response,
722,color_off,False,0,,f,off,blicket_images/dc.jpg,,0.0-18.0,,j,544,light,blicket_images/dc.jpg,47595,blicket,22,image-keyboard-response,
722,color_off,False,0,,f,off,blicket_images/ds.jpg,,0.0-20.0,,j,183,light,blicket_images/ds.jpg,48130,blicket,24,image-keyboard-response,
722,color_off,True,1,,j,on,blicket_images/lc.jpg,,0.0-22.0,,j,139,light,blicket_images/lc.jpg,48622,blicket,26,image-keyboard-response,
722,color_off,True,1,,j,on,blicket_images/ls.jpg,,0.0-24.0,,j,187,light,blicket_images/ls.jpg,49128,blicket,28,image-keyboard-response,
722,color_off,False,0,,f,off,blicket_images/dc.jpg,,0.0-26.0,,j,201,light,blicket_images/dc.jpg,49678,blicket,30,image-keyboard-response,
722,color_off,False,0,,f,off,blicket_images/ds.jpg,,0.0-28.0,,j,127,light,blicket_images/ds.jpg,50186,blicket,32,image-keyboard-response,
722,color_off,False,0,,f,off,blicket_images/dc.jpg,,0.0-30.0,,j,124,light,blicket_images/dc.jpg,50734,blicket,34,image-keyboard-response,
722,color_off,True,1,,j,on,blicket_images/lc.jpg,,0.0-32.0,,j,110,light,blicket_images/lc.jpg,51327,blicket,36,image-keyboard-response,
722,color_off,True,1,,j,on,blicket_images/ls.jpg,,0.0-34.0,,j,1658,light,blicket_images/ls.jpg,53455,blicket,38,image-keyboard-response,
722,color_off,False,0,,f,off,blicket_images/ds.jpg,,0.0-36.0,,j,2618,light,blicket_images/ds.jpg,56362,blicket,40,image-keyboard-response,
722,color_off,False,0,blicket_images/ds.jpg,,ds,,blicket_images/lc.jpg,0.0-37.0,,lc,2765,light,"Which of these options shows the image from the last trial, that you just saw?",59131,pop_quiz,41,html-button-response,
722,color_off,False,0,,,"['lc', 'ls']",,,0.0-38.0,[0],"['dc', 'lc']",5251,light,,64385,rule_question,42,survey-multi-select,
703,color_off,False,0,,f,off,blicket_images/dc.jpg,,0.0-6.0,,j,4395,light,blicket_images/dc.jpg,94605,blicket,10,image-keyboard-response,
703,color_off,True,1,,j,on,blicket_images/lc.jpg,,0.0-8.0,,j,2584,light,blicket_images/lc.jpg,99197,blicket,12,image-keyboard-response,
703,color_off,True,1,,j,on,blicket_images/ls.jpg,,0.0-10.0,,j,1127,light,blicket_images/ls.jpg,103237,blicket,14,image-keyboard-response,
703,color_off,True,1,,f,off,blicket_images/ds.jpg,,0.0-12.0,,f,1047,light,blicket_images/ds.jpg,105277,blicket,16,image-keyboard-response,
703,color_off,True,1,,f,off,blicket_images/dc.jpg,,0.0-14.0,,f,2263,light,blicket_images/dc.jpg,109878,blicket,18,image-keyboard-response,
703,color_off,True,1,,j,on,blicket_images/lc.jpg,,0.0-16.0,,j,927,light,blicket_images/lc.jpg,111757,blicket,20,image-keyboard-response,
