workerid,proliferate.condition,accuracy,accuracy_bool,age,bonus,correct_img,correct_key,correct_response,ethnicity,failed_audio,failed_images,failed_video,feedback,gender,hidden_img,img_selected,internal_node_id,overall_accuracy,question_order,race,response,rt,rule,stimulus,success,time_elapsed,timeout,trial,trial_index,trial_type,view_history,error
650,color_on,,,,,,,,,[],[],[],,,,,0.0-0.0,,,,,,light,,True,91,False,,0,preload,,
650,color_on,,,,,,,,,[],[],[],,,,,0.0-1.0,,,,,,light,,True,124,False,,1,preload,,
650,color_on,,,,,,,,,,,,,,,,0.0-2.0,,,,,,light,,True,3478,,,2,fullscreen,,
650,color_on,,,,,,,,,,,,,,,,0.0-3.0,,,,0,2188,light,"<p><b>Consent Form</b></p> <div style=""text-align:left;background-color:lightblue; padding:20px; max-width:900px;""><p><b>Description:</b> Welcome! You are invited to participate in a research study in cognitive psychology. You will be asked to perform various tasks on a computer which may include: looking at images or videos, listening to sounds, reading scenarios, or playing games. You may be asked a number of different questions about making judgments and intepreting people's actions. All information collected will remain confidential. </p> <p> <b>Risks and benefits:</b> Risks involved in this study are the same as those normally associated with using a computer (e.g., mild eye/arm strain). If you have any pre- existing conditions that might make reading and completing a computer-based survey strenuous for you, you should probably elect to not participate in this study. If at any time during the study you feel unable to participate because you are experiencing strain, you may end your participation without penalty. We cannot and do not guarantee or promise that you will receive any benefits from this study. Your decision whether or not to participate in this study will not affect your employment, medical care, and/or grades in school. </p><p><b>Time involvement:</b> Your participation in this experiment will take  5 minutes. </p><p><b> Payment:</b> If recruitment materials indicate payment (e.g., Prolific or other recruitment), you will receive compensation as indicated. </p><p><b>Subject's rights:</b> If you have read this notice and have decided to participate in this project, please understand your participation is voluntary and you have the right to withdraw your consent or discontinue participation at any time without penalty or loss of benefits to which you are otherwise entitled. You have the right to refuse to answer particular questions. Your individual privacy will be maintained in all published and written data resulting from the study. </p><p><b>Contact information:</b> If you have any questions, concerns or complaints about this research study, its procedures, or risks and benefits, you should ask the Protocol Director, (Professor Tobias Gerstenberg, Phone: (650) 725-2431; Email: gerstenberg@stanford.edu). </p><p><b>Independent contact:</b> If you are not satisfied with how this study is being conducted, or if you have any concerns, complaints, or general questions about the research or your rights as a participant, please contact the Stanford Institutional Review Board (IRB) to speak to someone independent of the research team via email at irb2-manager@lists.stanford.edu, or via phone at (650) 723-2480 or toll free at 1-866-680-2906. You can also write to the Stanford IRB, Stanford University, 3000 El Camino Real, Five Palo Alto Square, 4th Floor, Palo Alto, CA 94306. </p><p>You may want to print a copy of this consent form to keep. By clicking the button below, you acknowledge that you have read the above information, that you are 18 years of age, or older and give your consent to participate in our internet-based study and consent for us to analyze the resulting data. </p> </div><p> Do you agree with the terms of the experiment as explained above? </p>",,5667,,,3,html-button-response,,
650,color_on,,,,,,,,,,,,,,,,0.0-4.0-0.0,,,,,13880,light,,,19548,,instructions_pt1,4,instructions,"[{'page_index': 0, 'viewing_time': 2259}, {'page_index': 1, 'viewing_time': 2214}, {'page_index': 2, 'viewing_time': 3242}, {'page_index': 3, 'viewing_time': 4528}, {'page_index': 4, 'viewing_time': 1636}]",
650,color_on,True,,,,,,j,,,,,,,,,0.0-4.0-1.0-0.0,,,,j,4451,light,blicket_images/red_pyramid.jpg,,24010,,comprehension_quiz,5,image-keyboard-response,,
650,color_on,True,,,,,, ,,,,,,,,,0.0-4.0-1.0-1.0,,,, ,1469,light,blicket_images/red_pyramid_on.jpg,,25481,,comprehension_quiz,6,image-keyboard-response,,
650,color_on,True,,,,,,f,,,,,,,,,0.0-4.0-1.0-2.0,,,,f,4727,light,blicket_images/purple_prism.jpg,,30209,,comprehension_quiz,7,image-keyboard-response,,
650,color_on,True,,,,,, ,,,,,,,,,0.0-4.0-1.0-3.0,,,, ,1175,light,blicket_images/purple_prism_off.jpg,,31385,,comprehension_quiz,8,image-keyboard-response,,
650,color_on,,,,,,,,,,,,,,,,0.0-5.0,,,,,21757,light,,,53143,,,9,instructions,"[{'page_index': 0, 'viewing_time': 1878}, {'page_index': 1, 'viewing_time': 1667}, {'page_index': 2, 'viewing_time': 846}, {'page_index': 3, 'viewing_time': 1266}, {'page_index': 4, 'viewing_time': 1075}, {'page_index': 5, 'viewing_time': 5578}, {'page_index': 6, 'viewing_time': 4006}, {'page_index': 7, 'viewing_time': 4448}, {'page_index': 8, 'viewing_time': 994}]",
650,color_on,True,1,,,,j,on,,,,,,,blicket_images/ls.jpg,,0.0-6.0,,,,j,2633,light,blicket_images/ls.jpg,,55777,,blicket,10,image-keyboard-response,,
650,color_on,,,,,,,,,,,,,,blicket_images/ls.jpg,,0.0-7.0,,,, ,3527,light,blicket_images/ls_on.jpg,,59306,,feedback,11,image-keyboard-response,,
650,color_on,True,1,,,,f,off,,,,,,,blicket_images/dc.jpg,,0.0-8.0,,,,f,2022,light,blicket_images/dc.jpg,,61329,,blicket,12,image-keyboard-response,,
650,color_on,,,,,,,,,,,,,,blicket_images/dc.jpg,,0.0-9.0,,,, ,1455,light,blicket_images/dc_off.jpg,,62786,,feedback,13,image-keyboard-response,,
650,color_on,True,1,,,,j,on,,,,,,,blicket_images/ls.jpg,,0.0-10.0,,,,j,3200,light,blicket_images/ls.jpg,,65994,,blicket,14,image-keyboard-response,,
650,color_on,,,,,,,,,,,,,,blicket_images/ls.jpg,,0.0-11.0,,,, ,695,light,blicket_images/ls_on.jpg,,66690,,feedback,15,image-keyboard-response,,
650,color_on,True,1,,,,j,on,,,,,,,blicket_images/lc.jpg,,0.0-12.0,,,,j,1943,light,blicket_images/lc.jpg,,68634,,blicket,16,image-keyboard-response,,
650,color_on,,,,,,,,,,,,,,blicket_images/lc.jpg,,0.0-13.0,,,, ,527,light,blicket_images/lc_on.jpg,,69162,,feedback,17,image-keyboard-response,,
650,color_on,True,1,,,,j,on,,,,,,,blicket_images/ls.jpg,,0.0-14.0,,,,j,848,light,blicket_images/ls.jpg,,70010,,blicket,18,image-keyboard-response,,
650,color_on,,,,,,,,,,,,,,blicket_images/ls.jpg,,0.0-15.0,,,, ,582,light,blicket_images/ls_on.jpg,,70594,,feedback,19,image-keyboard-response,,
650,color_on,True,1,,,,f,off,,,,,,,blicket_images/dc.jpg,,0.0-16.0,,,,f,671,light,blicket_images/dc.jpg,,71266,,blicket,20,image-keyboard-response,,
650,color_on,,,,,,,,,,,,,,blicket_images/dc.jpg,,0.0-17.0,,,, ,607,light,blicket_images/dc_off.jpg,,71874,,feedback,21,image-keyboard-response,,
650,color_on,True,1,,,,j,on,,,,,,,blicket_images/lc.jpg,,0.0-18.0,,,,j,615,light,blicket_images/lc.jpg,,72490,,blicket,22,image-keyboard-response,,
650,color_on,,,,,,,,,,,,,,blicket_images/lc.jpg,,0.0-19.0,,,, ,527,light,blicket_images/lc_on.jpg,,73018,,feedback,23,image-keyboard-response,,
650,color_on,True,1,,,,f,off,,,,,,,blicket_images/ds.jpg,,0.0-20.0,,,,f,583,light,blicket_images/ds.jpg,,73602,,blicket,24,image-keyboard-response,,
650,color_on,,,,,,,,,,,,,,blicket_images/ds.jpg,,0.0-21.0,,,, ,516,light,blicket_images/ds_off.jpg,,74121,,feedback,25,image-keyboard-response,,
650,color_on,True,1,,,,f,off,,,,,,,blicket_images/dc.jpg,,0.0-22.0,,,,f,583,light,blicket_images/dc.jpg,,74705,,blicket,26,image-keyboard-response,,
650,color_on,,,,,,,,,,,,,,blicket_images/dc.jpg,,0.0-23.0,,,, ,503,light,blicket_images/dc_off.jpg,,75210,,feedback,27,image-keyboard-response,,
650,color_on,True,1,,,,f,off,,,,,,,blicket_images/ds.jpg,,0.0-24.0,,,,f,559,light,blicket_images/ds.jpg,,75770,,blicket,28,image-keyboard-response,,
650,color_on,,,,,,,,,,,,,,blicket_images/ds.jpg,,0.0-25.0,,,, ,487,light,blicket_images/ds_off.jpg,,76258,,feedback,29,image-keyboard-response,,
650,color_on,True,1,,,,j,on,,,,,,,blicket_images/ls.jpg,,0.0-26.0,,,,j,583,light,blicket_images/ls.jpg,,76842,,blicket,30,image-keyboard-response,,
650,color_on,,,,,,,,,,,,,,blicket_images/ls.jpg,,0.0-27.0,,,, ,527,light,blicket_images/ls_on.jpg,,77369,,feedback,31,image-keyboard-response,,
650,color_on,True,1,,,,f,off,,,,,,,blicket_images/ds.jpg,,0.0-28.0,,,,f,543,light,blicket_images/ds.jpg,,77914,,blicket,32,image-keyboard-response,,
650,color_on,,,,,,,,,,,,,,blicket_images/ds.jpg,,0.0-29.0,,,, ,511,light,blicket_images/ds_off.jpg,,78426,,feedback,33,image-keyboard-response,,
650,color_on,True,1,,,,f,off,,,,,,,blicket_images/dc.jpg,,0.0-30.0,,,,f,551,light,blicket_images/dc.jpg,,78977,,blicket,34,image-keyboard-response,,
650,color_on,,,,,,,,,,,,,,blicket_images/dc.jpg,,0.0-31.0,,,, ,464,light,blicket_images/dc_off.jpg,,79442,,feedback,35,image-keyboard-response,,
650,color_on,True,1,,,,j,on,,,,,,,blicket_images/lc.jpg,,0.0-32.0,,,,j,597,light,blicket_images/lc.jpg,,80042,,blicket,36,image-keyboard-response,,
650,color_on,,,,,,,,,,,,,,blicket_images/lc.jpg,,0.0-33.0,,,, ,470,light,blicket_images/lc_on.jpg,,80514,,feedback,37,image-keyboard-response,,
650,color_on,True,1,,,,f,off,,,,,,,blicket_images/ds.jpg,,0.0-34.0,,,,f,559,light,blicket_images/ds.jpg,,81073,,blicket,38,image-keyboard-response,,
650,color_on,,,,,,,,,,,,,,blicket_images/ds.jpg,,0.0-35.0,,,, ,447,light,blicket_images/ds_off.jpg,,81522,,feedback,39,image-keyboard-response,,
650,color_on,True,1,,,,j,on,,,,,,,blicket_images/ls.jpg,,0.0-36.0,,,,j,591,light,blicket_images/ls.jpg,,82114,,blicket,40,image-keyboard-response,,
650,color_on,True,1,,,blicket_images/ls.jpg,,ls,,,,,,,,blicket_images/ls.jpg,0.0-37.0,,,,ls,3005,light,"Which of these options shows the image from the last trial, that you just saw?",,85120,,pop_quiz,41,html-button-response,,
650,color_on,True,1,,,,,"['lc', 'ls']",,,,,,,,,0.0-38.0,,[0],,"['lc', 'ls']",5366,light,,,90491,,rule_question,42,survey-multi-select,,
650,color_on,,,,,,,,,,,,,,,,0.0-39.0,,,,0,2403,light,"<p>Thank you for participating!</p>You answered 16 out of 16 trials correctly, and will recieve a $0.40 bonus.<p>Now you will complete a short survey before finishing the experiment.</p>",,92896,,,43,html-button-response,,
650,color_on,,,63,0.4,,,,Non-Hispanic,,,,none --  i just guessed right the first time,Female,,,0.0-40.0,1,,White,"{'age': '63', 'race': 'White', 'gender': 'Female', 'feedback': 'none --  i just guessed right the first time', 'ethnicity': 'Non-Hispanic', 'other_race': '', 'other_gender': ''}",21141,light,,,114038,,exit_survey,44,survey-html-form,,
606,color_on,,,,,,,,,[],[],[],,,,,0.0-0.0,,,,,,dark,,True,99,False,,0,preload,,
606,color_on,,,,,,,,,[],[],[],,,,,0.0-1.0,,,,,,dark,,True,159,False,,1,preload,,
606,color_on,,,,,,,,,,,,,,,,0.0-2.0,,,,,,dark,,True,3476,,,2,fullscreen,,
606,color_on,,,,,,,,,,,,,,,,0.0-3.0,,,,0,4227,dark,"<p><b>Consent Form</b></p> <div style=""text-align:left;background-color:lightblue; padding:20px; max-width:900px;""><p><b>Description:</b> Welcome! You are invited to participate in a research study in cognitive psychology. You will be asked to perform various tasks on a computer which may include: looking at images or videos, listening to sounds, reading scenarios, or playing games. You may be asked a number of different questions about making judgments and intepreting people's actions. All information collected will remain confidential. </p> <p> <b>Risks and benefits:</b> Risks involved in this study are the same as those normally associated with using a computer (e.g., mild eye/arm strain). If you have any pre- existing conditions that might make reading and completing a computer-based survey strenuous for you, you should probably elect to not participate in this study. If at any time during the study you feel unable to participate because you are experiencing strain, you may end your participation without penalty. We cannot and do not guarantee or promise that you will receive any benefits from this study. Your decision whether or not to participate in this study will not affect your employment, medical care, and/or grades in school. </p><p><b>Time involvement:</b> Your participation in this experiment will take  5 minutes. </p><p><b> Payment:</b> If recruitment materials indicate payment (e.g., Prolific or other recruitment), you will receive compensation as indicated. </p><p><b>Subject's rights:</b> If you have read this notice and have decided to participate in this project, please understand your participation is voluntary and you have the right to withdraw your consent or discontinue participation at any time without penalty or loss of benefits to which you are otherwise entitled. You have the right to refuse to answer particular questions. Your individual privacy will be maintained in all published and written data resulting from the study. </p><p><b>Contact information:</b> If you have any questions, concerns or complaints about this research study, its procedures, or risks and benefits, you should ask the Protocol Director, (Professor Tobias Gerstenberg, Phone: (650) 725-2431; Email: gerstenberg@stanford.edu). </p><p><b>Independent contact:</b> If you are not satisfied with how this study is being conducted, or if you have any concerns, complaints, or general questions about the research or your rights as a participant, please contact the Stanford Institutional Review Board (IRB) to speak to someone independent of the research team via email at irb2-manager@lists.stanford.edu, or via phone at (650) 723-2480 or toll free at 1-866-680-2906. You can also write to the Stanford IRB, Stanford University, 3000 El Camino Real, Five Palo Alto Square, 4th Floor, Palo Alto, CA 94306. </p><p>You may want to print a copy of this consent form to keep. By clicking the button below, you acknowledge that you have read the above information, that you are 18 years of age, or older and give your consent to participate in our internet-based study and consent for us to analyze the resulting data. </p> </div><p> Do you agree with the terms of the experiment as explained above? </p>",,7706,,,3,html-button-response,,
606,color_on,,,,,,,,,,,,,,,,0.0-4.0-0.0,,,,,17530,dark,,,25236,,instructions_pt1,4,instructions,"[{'page_index': 0, 'viewing_time': 2847}, {'page_index': 1, 'viewing_time': 4223}, {'page_index': 2, 'viewing_time': 2314}, {'page_index': 3, 'viewing_time': 4631}, {'page_index': 4, 'viewing_time': 3516}]",
606,color_on,True,,,,,,j,,,,,,,,,0.0-4.0-1.0-0.0,,,,j,13107,dark,blicket_images/red_pyramid.jpg,,38353,,comprehension_quiz,5,image-keyboard-response,,
606,color_on,True,,,,,, ,,,,,,,,,0.0-4.0-1.0-1.0,,,, ,1993,dark,blicket_images/red_pyramid_on.jpg,,40349,,comprehension_quiz,6,image-keyboard-response,,
606,color_on,True,,,,,,f,,,,,,,,,0.0-4.0-1.0-2.0,,,,f,4431,dark,blicket_images/purple_prism.jpg,,44782,,comprehension_quiz,7,image-keyboard-response,,
606,color_on,True,,,,,, ,,,,,,,,,0.0-4.0-1.0-3.0,,,, ,1234,dark,blicket_images/purple_prism_off.jpg,,46018,,comprehension_quiz,8,image-keyboard-response,,
606,color_on,,,,,,,,,,,,,,,,0.0-5.0,,,,,30716,dark,,,76734,,,9,instructions,"[{'page_index': 0, 'viewing_time': 3188}, {'page_index': 1, 'viewing_time': 1608}, {'page_index': 2, 'viewing_time': 1187}, {'page_index': 3, 'viewing_time': 1242}, {'page_index': 4, 'viewing_time': 1072}, {'page_index': 5, 'viewing_time': 7269}, {'page_index': 6, 'viewing_time': 7278}, {'page_index': 7, 'viewing_time': 6720}, {'page_index': 8, 'viewing_time': 1153}]",
606,color_on,True,1,,,,f,off,,,,,,,blicket_images/lc.jpg,,0.0-6.0,,,,f,5640,dark,blicket_images/lc.jpg,,82376,,blicket,10,image-keyboard-response,,
606,color_on,,,,,,,,,,,,,,blicket_images/lc.jpg,,0.0-7.0,,,, ,2001,dark,blicket_images/lc_off.jpg,,84380,,feedback,11,image-keyboard-response,,
606,color_on,True,1,,,,j,on,,,,,,,blicket_images/ds.jpg,,0.0-8.0,,,,j,2060,dark,blicket_images/ds.jpg,,86441,,blicket,12,image-keyboard-response,,
606,color_on,,,,,,,,,,,,,,blicket_images/ds.jpg,,0.0-9.0,,,, ,1137,dark,blicket_images/ds_on.jpg,,87580,,feedback,13,image-keyboard-response,,
606,color_on,False,0,,,,j,on,,,,,,,blicket_images/dc.jpg,,0.0-10.0,,,,f,2513,dark,blicket_images/dc.jpg,,90095,,blicket,14,image-keyboard-response,,
606,color_on,,,,,,,,,,,,,,blicket_images/dc.jpg,,0.0-11.0,,,, ,3271,dark,blicket_images/dc_on.jpg,,93368,,feedback,15,image-keyboard-response,,
606,color_on,True,1,,,,j,on,,,,,,,blicket_images/ds.jpg,,0.0-12.0,,,,j,1779,dark,blicket_images/ds.jpg,,95148,,blicket,16,image-keyboard-response,,
606,color_on,,,,,,,,,,,,,,blicket_images/ds.jpg,,0.0-13.0,,,, ,1001,dark,blicket_images/ds_on.jpg,,96151,,feedback,17,image-keyboard-response,,
606,color_on,True,1,,,,f,off,,,,,,,blicket_images/ls.jpg,,0.0-14.0,,,,f,1060,dark,blicket_images/ls.jpg,,97213,,blicket,18,image-keyboard-response,,
606,color_on,,,,,,,,,,,,,,blicket_images/ls.jpg,,0.0-15.0,,,, ,733,dark,blicket_images/ls_off.jpg,,97947,,feedback,19,image-keyboard-response,,
606,color_on,True,1,,,,j,on,,,,,,,blicket_images/dc.jpg,,0.0-16.0,,,,j,725,dark,blicket_images/dc.jpg,,98674,,blicket,20,image-keyboard-response,,
606,color_on,,,,,,,,,,,,,,blicket_images/dc.jpg,,0.0-17.0,,,, ,602,dark,blicket_images/dc_on.jpg,,99278,,feedback,21,image-keyboard-response,,
606,color_on,True,1,,,,j,on,,,,,,,blicket_images/ds.jpg,,0.0-18.0,,,,j,952,dark,blicket_images/ds.jpg,,100233,,blicket,22,image-keyboard-response,,
606,color_on,,,,,,,,,,,,,,blicket_images/ds.jpg,,0.0-19.0,,,, ,634,dark,blicket_images/ds_on.jpg,,100868,,feedback,23,image-keyboard-response,,
606,color_on,True,1,,,,f,off,,,,,,,blicket_images/lc.jpg,,0.0-20.0,,,,f,655,dark,blicket_images/lc.jpg,,101525,,blicket,24,image-keyboard-response,,
606,color_on,,,,,,,,,,,,,,blicket_images/lc.jpg,,0.0-21.0,,,, ,790,dark,blicket_images/lc_off.jpg,,102324,,feedback,25,image-keyboard-response,,
606,color_on,True,1,,,,f,off,,,,,,,blicket_images/ls.jpg,,0.0-22.0,,,,f,577,dark,blicket_images/ls.jpg,,102903,,blicket,26,image-keyboard-response,,
606,color_on,,,,,,,,,,,,,,blicket_images/ls.jpg,,0.0-23.0,,,, ,556,dark,blicket_images/ls_off.jpg,,103461,,feedback,27,image-keyboard-response,,
606,color_on,True,1,,,,j,on,,,,,,,blicket_images/dc.jpg,,0.0-24.0,,,,j,823,dark,blicket_images/dc.jpg,,104286,,blicket,28,image-keyboard-response,,
606,color_on,,,,,,,,,,,,,,blicket_images/dc.jpg,,0.0-25.0,,,, ,662,dark,blicket_images/dc_on.jpg,,104950,,feedback,29,image-keyboard-response,,
606,color_on,True,1,,,,f,off,,,,,,,blicket_images/ls.jpg,,0.0-26.0,,,,f,623,dark,blicket_images/ls.jpg,,105574,,blicket,30,image-keyboard-response,,
606,color_on,,,,,,,,,,,,,,blicket_images/ls.jpg,,0.0-27.0,,,, ,800,dark,blicket_images/ls_off.jpg,,106376,,feedback,31,image-keyboard-response,,
606,color_on,True,1,,,,j,on,,,,,,,blicket_images/dc.jpg,,0.0-28.0,,,,j,600,dark,blicket_images/dc.jpg,,106977,,blicket,32,image-keyboard-response,,
606,color_on,,,,,,,,,,,,,,blicket_images/dc.jpg,,0.0-29.0,,,, ,609,dark,blicket_images/dc_on.jpg,,107587,,feedback,33,image-keyboard-response,,
606,color_on,True,1,,,,j,on,,,,,,,blicket_images/ds.jpg,,0.0-30.0,,,,j,597,dark,blicket_images/ds.jpg,,108186,,blicket,34,image-keyboard-response,,
606,color_on,,,,,,,,,,,,,,blicket_images/ds.jpg,,0.0-31.0,,,, ,632,dark,blicket_images/ds_on.jpg,,108819,,feedback,35,image-keyboard-response,,
606,color_on,True,1,,,,f,off,,,,,,,blicket_images/lc.jpg,,0.0-32.0,,,,f,587,dark,blicket_images/lc.jpg,,109408,,blicket,36,image-keyboard-response,,
606,color_on,,,,,,,,,,,,,,blicket_images/lc.jpg,,0.0-33.0,,,, ,653,dark,blicket_images/lc_off.jpg,,110062,,feedback,37,image-keyboard-response,,
606,color_on,True,1,,,,j,on,,,,,,,blicket_images/ds.jpg,,0.0-34.0,,,,j,962,dark,blicket_images/ds.jpg,,111026,,blicket,38,image-keyboard-response,,
606,color_on,,,,,,,,,,,,,,blicket_images/ds.jpg,,0.0-35.0,,,, ,784,dark,blicket_images/ds_on.jpg,,111811,,feedback,39,image-keyboard-response,,
606,color_on,True,1,,,,j,on,,,,,,,blicket_images/dc.jpg,,0.0-36.0,,,,j,571,dark,blicket_images/dc.jpg,,112383,,blicket,40,image-keyboard-response,,
606,color_on,False,0,,,blicket_images/dc.jpg,,dc,,,,,,,,blicket_images/ds.jpg,0.0-37.0,,,,ds,8097,dark,"Which of these options shows the image from the last trial, that you just saw?",,120482,,pop_quiz,41,html-button-response,,
606,color_on,True,1,,,,,"['dc', 'ds']",,,,,,,,,0.0-38.0,,[0],,"['dc', 'ds']",5530,dark,,,126021,,rule_question,42,survey-multi-select,,
606,color_on,,,,,,,,,,,,,,,,0.0-39.0,,,,0,3758,dark,"<p>Thank you for participating!</p>You answered 15 out of 16 trials correctly, and will recieve a $0.38 bonus.<p>Now you will complete a short survey before finishing the experiment.</p>",,129783,,,43,html-button-response,,
606,color_on,,,30,0.375,,,,Non-Hispanic,,,,I'm not sure how to explain my decisions (deduction?) but this was fun! :) Thank you!,Non-binary,,,0.0-40.0,0.9375,,Multiracial,"{'age': '30', 'race': 'Multiracial', 'gender': 'Non-binary', 'feedback': ""I'm not sure how to explain my decisions (deduction?) but this was fun! :) Thank you!"", 'ethnicity': 'Non-Hispanic', 'other_race': '', 'other_gender': ''}",59502,dark,,,189285,,exit_survey,44,survey-html-form,,
634,color_on,,,,,,,,,[],[],[],,,,,0.0-0.0,,,,,,dark,,True,783,False,,0,preload,,
634,color_on,,,,,,,,,[],[],[],,,,,0.0-1.0,,,,,,dark,,True,1378,False,,1,preload,,
634,color_on,,,,,,,,,,,,,,,,0.0-2.0,,,,,,dark,,True,4331,,,2,fullscreen,,
634,color_on,,,,,,,,,,,,,,,,0.0-3.0,,,,0,3044,dark,"<p><b>Consent Form</b></p> <div style=""text-align:left;background-color:lightblue; padding:20px; max-width:900px;""><p><b>Description:</b> Welcome! You are invited to participate in a research study in cognitive psychology. You will be asked to perform various tasks on a computer which may include: looking at images or videos, listening to sounds, reading scenarios, or playing games. You may be asked a number of different questions about making judgments and intepreting people's actions. All information collected will remain confidential. </p> <p> <b>Risks and benefits:</b> Risks involved in this study are the same as those normally associated with using a computer (e.g., mild eye/arm strain). If you have any pre- existing conditions that might make reading and completing a computer-based survey strenuous for you, you should probably elect to not participate in this study. If at any time during the study you feel unable to participate because you are experiencing strain, you may end your participation without penalty. We cannot and do not guarantee or promise that you will receive any benefits from this study. Your decision whether or not to participate in this study will not affect your employment, medical care, and/or grades in school. </p><p><b>Time involvement:</b> Your participation in this experiment will take  5 minutes. </p><p><b> Payment:</b> If recruitment materials indicate payment (e.g., Prolific or other recruitment), you will receive compensation as indicated. </p><p><b>Subject's rights:</b> If you have read this notice and have decided to participate in this project, please understand your participation is voluntary and you have the right to withdraw your consent or discontinue participation at any time without penalty or loss of benefits to which you are otherwise entitled. You have the right to refuse to answer particular questions. Your individual privacy will be maintained in all published and written data resulting from the study. </p><p><b>Contact information:</b> If you have any questions, concerns or complaints about this research study, its procedures, or risks and benefits, you should ask the Protocol Director, (Professor Tobias Gerstenberg, Phone: (650) 725-2431; Email: gerstenberg@stanford.edu). </p><p><b>Independent contact:</b> If you are not satisfied with how this study is being conducted, or if you have any concerns, complaints, or general questions about the research or your rights as a participant, please contact the Stanford Institutional Review Board (IRB) to speak to someone independent of the research team via email at irb2-manager@lists.stanford.edu, or via phone at (650) 723-2480 or toll free at 1-866-680-2906. You can also write to the Stanford IRB, Stanford University, 3000 El Camino Real, Five Palo Alto Square, 4th Floor, Palo Alto, CA 94306. </p><p>You may want to print a copy of this consent form to keep. By clicking the button below, you acknowledge that you have read the above information, that you are 18 years of age, or older and give your consent to participate in our internet-based study and consent for us to analyze the resulting data. </p> </div><p> Do you agree with the terms of the experiment as explained above? </p>",,7377,,,3,html-button-response,,
634,color_on,,,,,,,,,,,,,,,,0.0-4.0-0.0,,,,,9397,dark,,,16775,,instructions_pt1,4,instructions,"[{'page_index': 0, 'viewing_time': 1500}, {'page_index': 1, 'viewing_time': 1662}, {'page_index': 2, 'viewing_time': 1816}, {'page_index': 3, 'viewing_time': 2652}, {'page_index': 4, 'viewing_time': 1767}]",
634,color_on,True,,,,,,j,,,,,,,,,0.0-4.0-1.0-0.0,,,,j,7150,dark,blicket_images/red_pyramid.jpg,,23928,,comprehension_quiz,5,image-keyboard-response,,
634,color_on,True,,,,,, ,,,,,,,,,0.0-4.0-1.0-1.0,,,, ,1646,dark,blicket_images/red_pyramid_on.jpg,,25575,,comprehension_quiz,6,image-keyboard-response,,
634,color_on,True,,,,,,f,,,,,,,,,0.0-4.0-1.0-2.0,,,,f,7646,dark,blicket_images/purple_prism.jpg,,33222,,comprehension_quiz,7,image-keyboard-response,,
634,color_on,True,,,,,, ,,,,,,,,,0.0-4.0-1.0-3.0,,,, ,646,dark,blicket_images/purple_prism_off.jpg,,33870,,comprehension_quiz,8,image-keyboard-response,,
634,color_on,,,,,,,,,,,,,,,,0.0-5.0,,,,,21004,dark,,,54875,,,9,instructions,"[{'page_index': 0, 'viewing_time': 3078}, {'page_index': 1, 'viewing_time': 1307}, {'page_index': 2, 'viewing_time': 871}, {'page_index': 3, 'viewing_time': 1483}, {'page_index': 4, 'viewing_time': 1262}, {'page_index': 5, 'viewing_time': 5291}, {'page_index': 6, 'viewing_time': 3621}, {'page_index': 7, 'viewing_time': 2928}, {'page_index': 8, 'viewing_time': 1165}]",
634,color_on,True,1,,,,j,on,,,,,,,blicket_images/dc.jpg,,0.0-6.0,,,,j,4413,dark,blicket_images/dc.jpg,,59290,,blicket,10,image-keyboard-response,,
634,color_on,,,,,,,,,,,,,,blicket_images/dc.jpg,,0.0-7.0,,,, ,1056,dark,blicket_images/dc_on.jpg,,60347,,feedback,11,image-keyboard-response,,
634,color_on,False,0,,,,f,off,,,,,,,blicket_images/lc.jpg,,0.0-8.0,,,,j,2692,dark,blicket_images/lc.jpg,,63040,,blicket,12,image-keyboard-response,,
634,color_on,,,,,,,,,,,,,,blicket_images/lc.jpg,,0.0-9.0,,,, ,912,dark,blicket_images/lc_off.jpg,,63953,,feedback,13,image-keyboard-response,,
634,color_on,True,1,,,,f,off,,,,,,,blicket_images/ls.jpg,,0.0-10.0,,,,f,2128,dark,blicket_images/ls.jpg,,66082,,blicket,14,image-keyboard-response,,
634,color_on,,,,,,,,,,,,,,blicket_images/ls.jpg,,0.0-11.0,,,, ,882,dark,blicket_images/ls_off.jpg,,66965,,feedback,15,image-keyboard-response,,
634,color_on,True,1,,,,f,off,,,,,,,blicket_images/lc.jpg,,0.0-12.0,,,,f,1010,dark,blicket_images/lc.jpg,,67990,,blicket,16,image-keyboard-response,,
634,color_on,,,,,,,,,,,,,,blicket_images/lc.jpg,,0.0-13.0,,,, ,982,dark,blicket_images/lc_off.jpg,,68972,,feedback,17,image-keyboard-response,,
634,color_on,True,1,,,,j,on,,,,,,,blicket_images/dc.jpg,,0.0-14.0,,,,j,586,dark,blicket_images/dc.jpg,,69559,,blicket,18,image-keyboard-response,,
634,color_on,,,,,,,,,,,,,,blicket_images/dc.jpg,,0.0-15.0,,,, ,534,dark,blicket_images/dc_on.jpg,,70094,,feedback,19,image-keyboard-response,,
634,color_on,True,1,,,,f,off,,,,,,,blicket_images/lc.jpg,,0.0-16.0,,,,f,1184,dark,blicket_images/lc.jpg,,71280,,blicket,20,image-keyboard-response,,
634,color_on,,,,,,,,,,,,,,blicket_images/lc.jpg,,0.0-17.0,,,, ,824,dark,blicket_images/lc_off.jpg,,72105,,feedback,21,image-keyboard-response,,
634,color_on,True,1,,,,f,off,,,,,,,blicket_images/ls.jpg,,0.0-18.0,,,,f,656,dark,blicket_images/ls.jpg,,72762,,blicket,22,image-keyboard-response,,
634,color_on,,,,,,,,,,,,,,blicket_images/ls.jpg,,0.0-19.0,,,, ,613,dark,blicket_images/ls_off.jpg,,73378,,feedback,23,image-keyboard-response,,
634,color_on,True,1,,,,j,on,,,,,,,blicket_images/dc.jpg,,0.0-20.0,,,,j,691,dark,blicket_images/dc.jpg,,74070,,blicket,24,image-keyboard-response,,
634,color_on,,,,,,,,,,,,,,blicket_images/dc.jpg,,0.0-21.0,,,, ,486,dark,blicket_images/dc_on.jpg,,74558,,feedback,25,image-keyboard-response,,
634,color_on,True,1,,,,j,on,,,,,,,blicket_images/ds.jpg,,0.0-22.0,,,,j,647,dark,blicket_images/ds.jpg,,75206,,blicket,26,image-keyboard-response,,
634,color_on,,,,,,,,,,,,,,blicket_images/ds.jpg,,0.0-23.0,,,, ,749,dark,blicket_images/ds_on.jpg,,75957,,feedback,27,image-keyboard-response,,
634,color_on,True,1,,,,f,off,,,,,,,blicket_images/ls.jpg,,0.0-24.0,,,,f,586,dark,blicket_images/ls.jpg,,76543,,blicket,28,image-keyboard-response,,
634,color_on,,,,,,,,,,,,,,blicket_images/ls.jpg,,0.0-25.0,,,, ,554,dark,blicket_images/ls_off.jpg,,77098,,feedback,29,image-keyboard-response,,
634,color_on,True,1,,,,j,on,,,,,,,blicket_images/ds.jpg,,0.0-26.0,,,,j,575,dark,blicket_images/ds.jpg,,77674,,blicket,30,image-keyboard-response,,
634,color_on,,,,,,,,,,,,,,blicket_images/ds.jpg,,0.0-27.0,,,, ,655,dark,blicket_images/ds_on.jpg,,78331,,feedback,31,image-keyboard-response,,
634,color_on,True,1,,,,f,off,,,,,,,blicket_images/ls.jpg,,0.0-28.0,,,,f,604,dark,blicket_images/ls.jpg,,78937,,blicket,32,image-keyboard-response,,
634,color_on,,,,,,,,,,,,,,blicket_images/ls.jpg,,0.0-29.0,,,, ,534,dark,blicket_images/ls_off.jpg,,79473,,feedback,33,image-keyboard-response,,
634,color_on,True,1,,,,f,off,,,,,,,blicket_images/lc.jpg,,0.0-30.0,,,,f,528,dark,blicket_images/lc.jpg,,80002,,blicket,34,image-keyboard-response,,
634,color_on,,,,,,,,,,,,,,blicket_images/lc.jpg,,0.0-31.0,,,, ,581,dark,blicket_images/lc_off.jpg,,80583,,feedback,35,image-keyboard-response,,
634,color_on,True,1,,,,j,on,,,,,,,blicket_images/ds.jpg,,0.0-32.0,,,,j,520,dark,blicket_images/ds.jpg,,81105,,blicket,36,image-keyboard-response,,
634,color_on,,,,,,,,,,,,,,blicket_images/ds.jpg,,0.0-33.0,,,, ,636,dark,blicket_images/ds_on.jpg,,81741,,feedback,37,image-keyboard-response,,
634,color_on,True,1,,,,f,off,,,,,,,blicket_images/lc.jpg,,0.0-34.0,,,,f,699,dark,blicket_images/lc.jpg,,82441,,blicket,38,image-keyboard-response,,
634,color_on,,,,,,,,,,,,,,blicket_images/lc.jpg,,0.0-35.0,,,, ,712,dark,blicket_images/lc_off.jpg,,83155,,feedback,39,image-keyboard-response,,
634,color_on,True,1,,,,j,on,,,,,,,blicket_images/dc.jpg,,0.0-36.0,,,,j,562,dark,blicket_images/dc.jpg,,83717,,blicket,40,image-keyboard-response,,
634,color_on,True,1,,,blicket_images/dc.jpg,,dc,,,,,,,,blicket_images/dc.jpg,0.0-37.0,,,,dc,3682,dark,"Which of these options shows the image from the last trial, that you just saw?",,87404,,pop_quiz,41,html-button-response,,
634,color_on,True,1,,,,,"['dc', 'ds']",,,,,,,,,0.0-38.0,,[0],,"['dc', 'ds']",4072,dark,,,91488,,rule_question,42,survey-multi-select,,
634,color_on,,,,,,,,,,,,,,,,0.0-39.0,,,,0,2746,dark,"<p>Thank you for participating!</p>You answered 15 out of 16 trials correctly, and will recieve a $0.38 bonus.<p>Now you will complete a short survey before finishing the experiment.</p>",,94244,,,43,html-button-response,,
634,color_on,,,38,0.375,,,,Non-Hispanic,,,,The color of the Blicket.,Female,,,0.0-40.0,0.9375,,White,"{'age': '38', 'race': 'White', 'gender': 'Female', 'feedback': 'The color of the Blicket.', 'ethnicity': 'Non-Hispanic', 'other_race': '', 'other_gender': ''}",22275,dark,,,116522,,exit_survey,44,survey-html-form,,
610,color_on,,,,,,,,,[],[],[],,,,,0.0-0.0,,,,,,light,,True,272,False,,0,preload,,
610,color_on,,,,,,,,,[],[],[],,,,,0.0-1.0,,,,,,light,,True,459,False,,1,preload,,
610,color_on,,,,,,,,,,,,,,,,0.0-2.0,,,,,,light,,True,3217,,,2,fullscreen,,
610,color_on,,,,,,,,,,,,,,,,0.0-3.0,,,,0,2702,light,"<p><b>Consent Form</b></p> <div style=""text-align:left;background-color:lightblue; padding:20px; max-width:900px;""><p><b>Description:</b> Welcome! You are invited to participate in a research study in cognitive psychology. You will be asked to perform various tasks on a computer which may include: looking at images or videos, listening to sounds, reading scenarios, or playing games. You may be asked a number of different questions about making judgments and intepreting people's actions. All information collected will remain confidential. </p> <p> <b>Risks and benefits:</b> Risks involved in this study are the same as those normally associated with using a computer (e.g., mild eye/arm strain). If you have any pre- existing conditions that might make reading and completing a computer-based survey strenuous for you, you should probably elect to not participate in this study. If at any time during the study you feel unable to participate because you are experiencing strain, you may end your participation without penalty. We cannot and do not guarantee or promise that you will receive any benefits from this study. Your decision whether or not to participate in this study will not affect your employment, medical care, and/or grades in school. </p><p><b>Time involvement:</b> Your participation in this experiment will take  5 minutes. </p><p><b> Payment:</b> If recruitment materials indicate payment (e.g., Prolific or other recruitment), you will receive compensation as indicated. </p><p><b>Subject's rights:</b> If you have read this notice and have decided to participate in this project, please understand your participation is voluntary and you have the right to withdraw your consent or discontinue participation at any time without penalty or loss of benefits to which you are otherwise entitled. You have the right to refuse to answer particular questions. Your individual privacy will be maintained in all published and written data resulting from the study. </p><p><b>Contact information:</b> If you have any questions, concerns or complaints about this research study, its procedures, or risks and benefits, you should ask the Protocol Director, (Professor Tobias Gerstenberg, Phone: (650) 725-2431; Email: gerstenberg@stanford.edu). </p><p><b>Independent contact:</b> If you are not satisfied with how this study is being conducted, or if you have any concerns, complaints, or general questions about the research or your rights as a participant, please contact the Stanford Institutional Review Board (IRB) to speak to someone independent of the research team via email at irb2-manager@lists.stanford.edu, or via phone at (650) 723-2480 or toll free at 1-866-680-2906. You can also write to the Stanford IRB, Stanford University, 3000 El Camino Real, Five Palo Alto Square, 4th Floor, Palo Alto, CA 94306. </p><p>You may want to print a copy of this consent form to keep. By clicking the button below, you acknowledge that you have read the above information, that you are 18 years of age, or older and give your consent to participate in our internet-based study and consent for us to analyze the resulting data. </p> </div><p> Do you agree with the terms of the experiment as explained above? </p>",,5921,,,3,html-button-response,,
610,color_on,,,,,,,,,,,,,,,,0.0-4.0-0.0,,,,,9522,light,,,15445,,instructions_pt1,4,instructions,"[{'page_index': 0, 'viewing_time': 1961}, {'page_index': 1, 'viewing_time': 1658}, {'page_index': 2, 'viewing_time': 1253}, {'page_index': 3, 'viewing_time': 2703}, {'page_index': 4, 'viewing_time': 1945}]",
610,color_on,True,,,,,,j,,,,,,,,,0.0-4.0-1.0-0.0,,,,j,4418,light,blicket_images/red_pyramid.jpg,,19882,,comprehension_quiz,5,image-keyboard-response,,
610,color_on,True,,,,,, ,,,,,,,,,0.0-4.0-1.0-1.0,,,, ,1351,light,blicket_images/red_pyramid_on.jpg,,21236,,comprehension_quiz,6,image-keyboard-response,,
610,color_on,True,,,,,,f,,,,,,,,,0.0-4.0-1.0-2.0,,,,f,7737,light,blicket_images/purple_prism.jpg,,28975,,comprehension_quiz,7,image-keyboard-response,,
610,color_on,True,,,,,, ,,,,,,,,,0.0-4.0-1.0-3.0,,,, ,631,light,blicket_images/purple_prism_off.jpg,,29609,,comprehension_quiz,8,image-keyboard-response,,
610,color_on,,,,,,,,,,,,,,,,0.0-5.0,,,,,20225,light,,,49836,,,9,instructions,"[{'page_index': 0, 'viewing_time': 3143}, {'page_index': 1, 'viewing_time': 1402}, {'page_index': 2, 'viewing_time': 765}, {'page_index': 3, 'viewing_time': 903}, {'page_index': 4, 'viewing_time': 700}, {'page_index': 5, 'viewing_time': 2353}, {'page_index': 6, 'viewing_time': 2710}, {'page_index': 7, 'viewing_time': 6572}, {'page_index': 8, 'viewing_time': 1678}]",
610,color_on,False,0,,,,j,on,,,,,,,blicket_images/ls.jpg,,0.0-6.0,,,,f,5055,light,blicket_images/ls.jpg,,54893,,blicket,10,image-keyboard-response,,
610,color_on,,,,,,,,,,,,,,blicket_images/ls.jpg,,0.0-7.0,,,, ,1186,light,blicket_images/ls_on.jpg,,56084,,feedback,11,image-keyboard-response,,
610,color_on,False,0,,,,j,on,,,,,,,blicket_images/lc.jpg,,0.0-8.0,,,,f,1191,light,blicket_images/lc.jpg,,57276,,blicket,12,image-keyboard-response,,
610,color_on,,,,,,,,,,,,,,blicket_images/lc.jpg,,0.0-9.0,,,, ,930,light,blicket_images/lc_on.jpg,,58208,,feedback,13,image-keyboard-response,,
610,color_on,True,1,,,,j,on,,,,,,,blicket_images/ls.jpg,,0.0-10.0,,,,j,2248,light,blicket_images/ls.jpg,,60457,,blicket,14,image-keyboard-response,,
610,color_on,,,,,,,,,,,,,,blicket_images/ls.jpg,,0.0-11.0,,,, ,499,light,blicket_images/ls_on.jpg,,60959,,feedback,15,image-keyboard-response,,
610,color_on,False,0,,,,f,off,,,,,,,blicket_images/dc.jpg,,0.0-12.0,,,,j,1404,light,blicket_images/dc.jpg,,62365,,blicket,16,image-keyboard-response,,
610,color_on,,,,,,,,,,,,,,blicket_images/dc.jpg,,0.0-13.0,,,, ,157,light,blicket_images/dc_off.jpg,,62524,,feedback,17,image-keyboard-response,,
610,color_on,True,1,,,,f,off,,,,,,,blicket_images/ds.jpg,,0.0-14.0,,,,f,1276,light,blicket_images/ds.jpg,,63802,,blicket,18,image-keyboard-response,,
610,color_on,,,,,,,,,,,,,,blicket_images/ds.jpg,,0.0-15.0,,,, ,151,light,blicket_images/ds_off.jpg,,63955,,feedback,19,image-keyboard-response,,
610,color_on,True,1,,,,f,off,,,,,,,blicket_images/dc.jpg,,0.0-16.0,,,,f,1689,light,blicket_images/dc.jpg,,65646,,blicket,20,image-keyboard-response,,
610,color_on,,,,,,,,,,,,,,blicket_images/dc.jpg,,0.0-17.0,,,, ,479,light,blicket_images/dc_off.jpg,,66127,,feedback,21,image-keyboard-response,,
610,color_on,True,1,,,,j,on,,,,,,,blicket_images/lc.jpg,,0.0-18.0,,,,j,1371,light,blicket_images/lc.jpg,,67500,,blicket,22,image-keyboard-response,,
610,color_on,,,,,,,,,,,,,,blicket_images/lc.jpg,,0.0-19.0,,,, ,409,light,blicket_images/lc_on.jpg,,67911,,feedback,23,image-keyboard-response,,
610,color_on,False,0,,,,f,off,,,,,,,blicket_images/dc.jpg,,0.0-20.0,,,,j,1029,light,blicket_images/dc.jpg,,68942,,blicket,24,image-keyboard-response,,
610,color_on,,,,,,,,,,,,,,blicket_images/dc.jpg,,0.0-21.0,,,, ,228,light,blicket_images/dc_off.jpg,,69171,,feedback,25,image-keyboard-response,,
610,color_on,True,1,,,,j,on,,,,,,,blicket_images/lc.jpg,,0.0-22.0,,,,j,1099,light,blicket_images/lc.jpg,,70272,,blicket,26,image-keyboard-response,,
610,color_on,,,,,,,,,,,,,,blicket_images/lc.jpg,,0.0-23.0,,,, ,449,light,blicket_images/lc_on.jpg,,70723,,feedback,27,image-keyboard-response,,
610,color_on,True,1,,,,f,off,,,,,,,blicket_images/ds.jpg,,0.0-24.0,,,,f,712,light,blicket_images/ds.jpg,,71437,,blicket,28,image-keyboard-response,,
610,color_on,,,,,,,,,,,,,,blicket_images/ds.jpg,,0.0-25.0,,,, ,381,light,blicket_images/ds_off.jpg,,71820,,feedback,29,image-keyboard-response,,
610,color_on,False,0,,,,j,on,,,,,,,blicket_images/ls.jpg,,0.0-26.0,,,,f,821,light,blicket_images/ls.jpg,,72643,,blicket,30,image-keyboard-response,,
610,color_on,,,,,,,,,,,,,,blicket_images/ls.jpg,,0.0-27.0,,,, ,648,light,blicket_images/ls_on.jpg,,73293,,feedback,31,image-keyboard-response,,
610,color_on,False,0,,,,f,off,,,,,,,blicket_images/ds.jpg,,0.0-28.0,,,,j,573,light,blicket_images/ds.jpg,,73867,,blicket,32,image-keyboard-response,,
610,color_on,,,,,,,,,,,,,,blicket_images/ds.jpg,,0.0-29.0,,,, ,844,light,blicket_images/ds_off.jpg,,74712,,feedback,33,image-keyboard-response,,
610,color_on,False,0,,,,j,on,,,,,,,blicket_images/ls.jpg,,0.0-30.0,,,,f,701,light,blicket_images/ls.jpg,,75419,,blicket,34,image-keyboard-response,,
610,color_on,,,,,,,,,,,,,,blicket_images/ls.jpg,,0.0-31.0,,,, ,644,light,blicket_images/ls_on.jpg,,76065,,feedback,35,image-keyboard-response,,
610,color_on,False,0,,,,f,off,,,,,,,blicket_images/dc.jpg,,0.0-32.0,,,,j,558,light,blicket_images/dc.jpg,,76624,,blicket,36,image-keyboard-response,,
610,color_on,,,,,,,,,,,,,,blicket_images/dc.jpg,,0.0-33.0,,,, ,824,light,blicket_images/dc_off.jpg,,77450,,feedback,37,image-keyboard-response,,
610,color_on,True,1,,,,j,on,,,,,,,blicket_images/ls.jpg,,0.0-34.0,,,,j,435,light,blicket_images/ls.jpg,,77887,,blicket,38,image-keyboard-response,,
610,color_on,,,,,,,,,,,,,,blicket_images/ls.jpg,,0.0-35.0,,,, ,320,light,blicket_images/ls_on.jpg,,78208,,feedback,39,image-keyboard-response,,
610,color_on,False,0,,,,j,on,,,,,,,blicket_images/lc.jpg,,0.0-36.0,,,,f,444,light,blicket_images/lc.jpg,,78653,,blicket,40,image-keyboard-response,,
610,color_on,False,0,,,blicket_images/lc.jpg,,lc,,,,,,,,blicket_images/ds.jpg,0.0-37.0,,,,ds,4518,light,"Which of these options shows the image from the last trial, that you just saw?",,83175,,pop_quiz,41,html-button-response,,
610,color_on,False,0,,,,,"['lc', 'ls']",,,,,,,,,0.0-38.0,,[0],,"['dc', 'ds']",7195,light,,,90380,,rule_question,42,survey-multi-select,,
610,color_on,,,,,,,,,,,,,,,,0.0-39.0,,,,0,1770,light,"<p>Thank you for participating!</p>You answered 7 out of 16 trials correctly, and will recieve a $0.18 bonus.<p>Now you will complete a short survey before finishing the experiment.</p>",,92155,,,43,html-button-response,,
610,color_on,,,23,0.17500000000000002,,,,Non-Hispanic,,,,,Female,,,0.0-40.0,0.4375,,White,"{'age': '23', 'race': 'White', 'gender': 'Female', 'feedback': '', 'ethnicity': 'Non-Hispanic', 'other_race': '', 'other_gender': ''}",6002,light,,,98161,,exit_survey,44,survey-html-form,,
718,color_on,,,,,,,,,[],[],[],,,,,0.0-0.0,,,,,,dark,,True,463,False,,0,preload,,
718,color_on,,,,,,,,,[],[],[],,,,,0.0-1.0,,,,,,dark,,True,691,False,,1,preload,,
718,color_on,,,,,,,,,,,,,,,,0.0-2.0,,,,,,dark,,True,3372,,,2,fullscreen,,
718,color_on,,,,,,,,,,,,,,,,0.0-3.0,,,,0,4901,dark,"<p><b>Consent Form</b></p> <div style=""text-align:left;background-color:lightblue; padding:20px; max-width:900px;""><p><b>Description:</b> Welcome! You are invited to participate in a research study in cognitive psychology. You will be asked to perform various tasks on a computer which may include: looking at images or videos, listening to sounds, reading scenarios, or playing games. You may be asked a number of different questions about making judgments and intepreting people's actions. All information collected will remain confidential. </p> <p> <b>Risks and benefits:</b> Risks involved in this study are the same as those normally associated with using a computer (e.g., mild eye/arm strain). If you have any pre- existing conditions that might make reading and completing a computer-based survey strenuous for you, you should probably elect to not participate in this study. If at any time during the study you feel unable to participate because you are experiencing strain, you may end your participation without penalty. We cannot and do not guarantee or promise that you will receive any benefits from this study. Your decision whether or not to participate in this study will not affect your employment, medical care, and/or grades in school. </p><p><b>Time involvement:</b> Your participation in this experiment will take  5 minutes. </p><p><b> Payment:</b> If recruitment materials indicate payment (e.g., Prolific or other recruitment), you will receive compensation as indicated. </p><p><b>Subject's rights:</b> If you have read this notice and have decided to participate in this project, please understand your participation is voluntary and you have the right to withdraw your consent or discontinue participation at any time without penalty or loss of benefits to which you are otherwise entitled. You have the right to refuse to answer particular questions. Your individual privacy will be maintained in all published and written data resulting from the study. </p><p><b>Contact information:</b> If you have any questions, concerns or complaints about this research study, its procedures, or risks and benefits, you should ask the Protocol Director, (Professor Tobias Gerstenberg, Phone: (650) 725-2431; Email: gerstenberg@stanford.edu). </p><p><b>Independent contact:</b> If you are not satisfied with how this study is being conducted, or if you have any concerns, complaints, or general questions about the research or your rights as a participant, please contact the Stanford Institutional Review Board (IRB) to speak to someone independent of the research team via email at irb2-manager@lists.stanford.edu, or via phone at (650) 723-2480 or toll free at 1-866-680-2906. You can also write to the Stanford IRB, Stanford University, 3000 El Camino Real, Five Palo Alto Square, 4th Floor, Palo Alto, CA 94306. </p><p>You may want to print a copy of this consent form to keep. By clicking the button below, you acknowledge that you have read the above information, that you are 18 years of age, or older and give your consent to participate in our internet-based study and consent for us to analyze the resulting data. </p> </div><p> Do you agree with the terms of the experiment as explained above? </p>",,8273,,,3,html-button-response,,
718,color_on,,,,,,,,,,,,,,,,0.0-4.0-0.0,,,,,9123,dark,,,17398,,instructions_pt1,4,instructions,"[{'page_index': 0, 'viewing_time': 1383}, {'page_index': 1, 'viewing_time': 2032}, {'page_index': 2, 'viewing_time': 1536}, {'page_index': 3, 'viewing_time': 2891}, {'page_index': 4, 'viewing_time': 1281}]",
718,color_on,True,,,,,,j,,,,,,,,,0.0-4.0-1.0-0.0,,,,j,4370,dark,blicket_images/red_pyramid.jpg,,21770,,comprehension_quiz,5,image-keyboard-response,,
718,color_on,True,,,,,, ,,,,,,,,,0.0-4.0-1.0-1.0,,,, ,1118,dark,blicket_images/red_pyramid_on.jpg,,22889,,comprehension_quiz,6,image-keyboard-response,,
718,color_on,True,,,,,,f,,,,,,,,,0.0-4.0-1.0-2.0,,,,f,1777,dark,blicket_images/purple_prism.jpg,,24670,,comprehension_quiz,7,image-keyboard-response,,
718,color_on,True,,,,,, ,,,,,,,,,0.0-4.0-1.0-3.0,,,, ,1055,dark,blicket_images/purple_prism_off.jpg,,25725,,comprehension_quiz,8,image-keyboard-response,,
718,color_on,,,,,,,,,,,,,,,,0.0-5.0,,,,,22570,dark,,,48297,,,9,instructions,"[{'page_index': 0, 'viewing_time': 3268}, {'page_index': 1, 'viewing_time': 1463}, {'page_index': 2, 'viewing_time': 576}, {'page_index': 3, 'viewing_time': 785}, {'page_index': 4, 'viewing_time': 384}, {'page_index': 5, 'viewing_time': 4640}, {'page_index': 6, 'viewing_time': 7094}, {'page_index': 7, 'viewing_time': 3665}, {'page_index': 8, 'viewing_time': 695}]",
718,color_on,True,1,,,,j,on,,,,,,,blicket_images/dc.jpg,,0.0-6.0,,,,j,3273,dark,blicket_images/dc.jpg,,51574,,blicket,10,image-keyboard-response,,
718,color_on,,,,,,,,,,,,,,blicket_images/dc.jpg,,0.0-7.0,,,, ,2757,dark,blicket_images/dc_on.jpg,,54334,,feedback,11,image-keyboard-response,,
718,color_on,True,1,,,,j,on,,,,,,,blicket_images/ds.jpg,,0.0-8.0,,,,j,1361,dark,blicket_images/ds.jpg,,55698,,blicket,12,image-keyboard-response,,
718,color_on,,,,,,,,,,,,,,blicket_images/ds.jpg,,0.0-9.0,,,, ,1051,dark,blicket_images/ds_on.jpg,,56750,,feedback,13,image-keyboard-response,,
718,color_on,True,1,,,,f,off,,,,,,,blicket_images/lc.jpg,,0.0-10.0,,,,f,885,dark,blicket_images/lc.jpg,,57637,,blicket,14,image-keyboard-response,,
718,color_on,,,,,,,,,,,,,,blicket_images/lc.jpg,,0.0-11.0,,,, ,1507,dark,blicket_images/lc_off.jpg,,59146,,feedback,15,image-keyboard-response,,
718,color_on,True,1,,,,j,on,,,,,,,blicket_images/dc.jpg,,0.0-12.0,,,,j,1537,dark,blicket_images/dc.jpg,,60684,,blicket,16,image-keyboard-response,,
718,color_on,,,,,,,,,,,,,,blicket_images/dc.jpg,,0.0-13.0,,,, ,470,dark,blicket_images/dc_on.jpg,,61154,,feedback,17,image-keyboard-response,,
718,color_on,True,1,,,,f,off,,,,,,,blicket_images/lc.jpg,,0.0-14.0,,,,f,924,dark,blicket_images/lc.jpg,,62078,,blicket,18,image-keyboard-response,,
718,color_on,,,,,,,,,,,,,,blicket_images/lc.jpg,,0.0-15.0,,,, ,559,dark,blicket_images/lc_off.jpg,,62637,,feedback,19,image-keyboard-response,,
718,color_on,True,1,,,,f,off,,,,,,,blicket_images/ls.jpg,,0.0-16.0,,,,f,746,dark,blicket_images/ls.jpg,,63385,,blicket,20,image-keyboard-response,,
718,color_on,,,,,,,,,,,,,,blicket_images/ls.jpg,,0.0-17.0,,,, ,830,dark,blicket_images/ls_off.jpg,,64217,,feedback,21,image-keyboard-response,,
718,color_on,True,1,,,,j,on,,,,,,,blicket_images/ds.jpg,,0.0-18.0,,,,j,1416,dark,blicket_images/ds.jpg,,65633,,blicket,22,image-keyboard-response,,
718,color_on,,,,,,,,,,,,,,blicket_images/ds.jpg,,0.0-19.0,,,, ,544,dark,blicket_images/ds_on.jpg,,66178,,feedback,23,image-keyboard-response,,
718,color_on,True,1,,,,j,on,,,,,,,blicket_images/dc.jpg,,0.0-20.0,,,,j,472,dark,blicket_images/dc.jpg,,66650,,blicket,24,image-keyboard-response,,
718,color_on,,,,,,,,,,,,,,blicket_images/dc.jpg,,0.0-21.0,,,, ,443,dark,blicket_images/dc_on.jpg,,67094,,feedback,25,image-keyboard-response,,
718,color_on,True,1,,,,f,off,,,,,,,blicket_images/ls.jpg,,0.0-22.0,,,,f,848,dark,blicket_images/ls.jpg,,67942,,blicket,26,image-keyboard-response,,
718,color_on,,,,,,,,,,,,,,blicket_images/ls.jpg,,0.0-23.0,,,, ,671,dark,blicket_images/ls_off.jpg,,68614,,feedback,27,image-keyboard-response,,
718,color_on,True,1,,,,j,on,,,,,,,blicket_images/ds.jpg,,0.0-24.0,,,,j,1047,dark,blicket_images/ds.jpg,,69661,,blicket,28,image-keyboard-response,,
718,color_on,,,,,,,,,,,,,,blicket_images/ds.jpg,,0.0-25.0,,,, ,413,dark,blicket_images/ds_on.jpg,,70073,,feedback,29,image-keyboard-response,,
718,color_on,True,1,,,,j,on,,,,,,,blicket_images/dc.jpg,,0.0-26.0,,,,j,483,dark,blicket_images/dc.jpg,,70558,,blicket,30,image-keyboard-response,,
718,color_on,,,,,,,,,,,,,,blicket_images/dc.jpg,,0.0-27.0,,,, ,356,dark,blicket_images/dc_on.jpg,,70914,,feedback,31,image-keyboard-response,,
718,color_on,True,1,,,,j,on,,,,,,,blicket_images/ds.jpg,,0.0-28.0,,,,j,801,dark,blicket_images/ds.jpg,,71715,,blicket,32,image-keyboard-response,,
718,color_on,,,,,,,,,,,,,,blicket_images/ds.jpg,,0.0-29.0,,,, ,266,dark,blicket_images/ds_on.jpg,,71981,,feedback,33,image-keyboard-response,,
718,color_on,True,1,,,,f,off,,,,,,,blicket_images/lc.jpg,,0.0-30.0,,,,f,560,dark,blicket_images/lc.jpg,,72542,,blicket,34,image-keyboard-response,,
718,color_on,,,,,,,,,,,,,,blicket_images/lc.jpg,,0.0-31.0,,,, ,304,dark,blicket_images/lc_off.jpg,,72845,,feedback,35,image-keyboard-response,,
718,color_on,True,1,,,,f,off,,,,,,,blicket_images/ls.jpg,,0.0-32.0,,,,f,495,dark,blicket_images/ls.jpg,,73342,,blicket,36,image-keyboard-response,,
718,color_on,,,,,,,,,,,,,,blicket_images/ls.jpg,,0.0-33.0,,,, ,343,dark,blicket_images/ls_off.jpg,,73685,,feedback,37,image-keyboard-response,,
718,color_on,True,1,,,,f,off,,,,,,,blicket_images/lc.jpg,,0.0-34.0,,,,f,655,dark,blicket_images/lc.jpg,,74342,,blicket,38,image-keyboard-response,,
718,color_on,,,,,,,,,,,,,,blicket_images/lc.jpg,,0.0-35.0,,,, ,164,dark,blicket_images/lc_off.jpg,,74506,,feedback,39,image-keyboard-response,,
718,color_on,True,1,,,,j,on,,,,,,,blicket_images/ds.jpg,,0.0-36.0,,,,j,521,dark,blicket_images/ds.jpg,,75026,,blicket,40,image-keyboard-response,,
718,color_on,True,1,,,blicket_images/ds.jpg,,ds,,,,,,,,blicket_images/ds.jpg,0.0-37.0,,,,ds,5223,dark,"Which of these options shows the image from the last trial, that you just saw?",,80250,,pop_quiz,41,html-button-response,,
718,color_on,True,1,,,,,"['dc', 'ds']",,,,,,,,,0.0-38.0,,[0],,"['dc', 'ds']",4492,dark,,,84744,,rule_question,42,survey-multi-select,,
718,color_on,,,,,,,,,,,,,,,,0.0-39.0,,,,0,2216,dark,"<p>Thank you for participating!</p>You answered 16 out of 16 trials correctly, and will recieve a $0.40 bonus.<p>Now you will complete a short survey before finishing the experiment.</p>",,86962,,,43,html-button-response,,
718,color_on,,,34,0.4,,,,Non-Hispanic,,,,"The first one was a complete guess. The second was an educated guess. I was lucky with both. After that, the pattern was obvious.",Male,,,0.0-40.0,1,,White,"{'age': '34', 'race': 'White', 'gender': 'Male', 'feedback': 'The first one was a complete guess. The second was an educated guess. I was lucky with both. After that, the pattern was obvious.', 'ethnicity': 'Non-Hispanic', 'other_race': '', 'other_gender': ''}",37093,dark,,,124058,,exit_survey,44,survey-html-form,,
688,color_on,,,,,,,,,[],[],[],,,,,0.0-0.0,,,,,,dark,,True,224,False,,0,preload,,
688,color_on,,,,,,,,,[],[],[],,,,,0.0-1.0,,,,,,dark,,True,273,False,,1,preload,,
688,color_on,,,,,,,,,,,,,,,,0.0-2.0,,,,,,dark,,True,4432,,,2,fullscreen,,
688,color_on,,,,,,,,,,,,,,,,0.0-3.0,,,,0,11773,dark,"<p><b>Consent Form</b></p> <div style=""text-align:left;background-color:lightblue; padding:20px; max-width:900px;""><p><b>Description:</b> Welcome! You are invited to participate in a research study in cognitive psychology. You will be asked to perform various tasks on a computer which may include: looking at images or videos, listening to sounds, reading scenarios, or playing games. You may be asked a number of different questions about making judgments and intepreting people's actions. All information collected will remain confidential. </p> <p> <b>Risks and benefits:</b> Risks involved in this study are the same as those normally associated with using a computer (e.g., mild eye/arm strain). If you have any pre- existing conditions that might make reading and completing a computer-based survey strenuous for you, you should probably elect to not participate in this study. If at any time during the study you feel unable to participate because you are experiencing strain, you may end your participation without penalty. We cannot and do not guarantee or promise that you will receive any benefits from this study. Your decision whether or not to participate in this study will not affect your employment, medical care, and/or grades in school. </p><p><b>Time involvement:</b> Your participation in this experiment will take  5 minutes. </p><p><b> Payment:</b> If recruitment materials indicate payment (e.g., Prolific or other recruitment), you will receive compensation as indicated. </p><p><b>Subject's rights:</b> If you have read this notice and have decided to participate in this project, please understand your participation is voluntary and you have the right to withdraw your consent or discontinue participation at any time without penalty or loss of benefits to which you are otherwise entitled. You have the right to refuse to answer particular questions. Your individual privacy will be maintained in all published and written data resulting from the study. </p><p><b>Contact information:</b> If you have any questions, concerns or complaints about this research study, its procedures, or risks and benefits, you should ask the Protocol Director, (Professor Tobias Gerstenberg, Phone: (650) 725-2431; Email: gerstenberg@stanford.edu). </p><p><b>Independent contact:</b> If you are not satisfied with how this study is being conducted, or if you have any concerns, complaints, or general questions about the research or your rights as a participant, please contact the Stanford Institutional Review Board (IRB) to speak to someone independent of the research team via email at irb2-manager@lists.stanford.edu, or via phone at (650) 723-2480 or toll free at 1-866-680-2906. You can also write to the Stanford IRB, Stanford University, 3000 El Camino Real, Five Palo Alto Square, 4th Floor, Palo Alto, CA 94306. </p><p>You may want to print a copy of this consent form to keep. By clicking the button below, you acknowledge that you have read the above information, that you are 18 years of age, or older and give your consent to participate in our internet-based study and consent for us to analyze the resulting data. </p> </div><p> Do you agree with the terms of the experiment as explained above? </p>",,16206,,,3,html-button-response,,
688,color_on,,,,,,,,,,,,,,,,0.0-4.0-0.0,,,,,27304,dark,,,43510,,instructions_pt1,4,instructions,"[{'page_index': 0, 'viewing_time': 2651}, {'page_index': 1, 'viewing_time': 13430}, {'page_index': 2, 'viewing_time': 2211}, {'page_index': 3, 'viewing_time': 6103}, {'page_index': 4, 'viewing_time': 2908}]",
688,color_on,True,,,,,,j,,,,,,,,,0.0-4.0-1.0-0.0,,,,j,10934,dark,blicket_images/red_pyramid.jpg,,54452,,comprehension_quiz,5,image-keyboard-response,,
688,color_on,True,,,,,, ,,,,,,,,,0.0-4.0-1.0-1.0,,,, ,1652,dark,blicket_images/red_pyramid_on.jpg,,56105,,comprehension_quiz,6,image-keyboard-response,,
688,color_on,True,,,,,,f,,,,,,,,,0.0-4.0-1.0-2.0,,,,f,3047,dark,blicket_images/purple_prism.jpg,,59153,,comprehension_quiz,7,image-keyboard-response,,
688,color_on,True,,,,,, ,,,,,,,,,0.0-4.0-1.0-3.0,,,, ,1481,dark,blicket_images/purple_prism_off.jpg,,60635,,comprehension_quiz,8,image-keyboard-response,,
688,color_on,,,,,,,,,,,,,,,,0.0-5.0,,,,,49372,dark,,,110008,,,9,instructions,"[{'page_index': 0, 'viewing_time': 5789}, {'page_index': 1, 'viewing_time': 2082}, {'page_index': 2, 'viewing_time': 1087}, {'page_index': 3, 'viewing_time': 1302}, {'page_index': 4, 'viewing_time': 1262}, {'page_index': 5, 'viewing_time': 9977}, {'page_index': 6, 'viewing_time': 12308}, {'page_index': 7, 'viewing_time': 14013}, {'page_index': 8, 'viewing_time': 1553}]",
688,color_on,False,0,,,,f,off,,,,,,,blicket_images/lc.jpg,,0.0-6.0,,,,j,4411,dark,blicket_images/lc.jpg,,114420,,blicket,10,image-keyboard-response,,
688,color_on,,,,,,,,,,,,,,blicket_images/lc.jpg,,0.0-7.0,,,, ,1737,dark,blicket_images/lc_off.jpg,,116158,,feedback,11,image-keyboard-response,,
688,color_on,True,1,,,,j,on,,,,,,,blicket_images/dc.jpg,,0.0-8.0,,,,j,3197,dark,blicket_images/dc.jpg,,119356,,blicket,12,image-keyboard-response,,
688,color_on,,,,,,,,,,,,,,blicket_images/dc.jpg,,0.0-9.0,,,, ,2299,dark,blicket_images/dc_on.jpg,,121656,,feedback,13,image-keyboard-response,,
688,color_on,True,1,,,,f,off,,,,,,,blicket_images/lc.jpg,,0.0-10.0,,,,f,2277,dark,blicket_images/lc.jpg,,123933,,blicket,14,image-keyboard-response,,
688,color_on,,,,,,,,,,,,,,blicket_images/lc.jpg,,0.0-11.0,,,, ,1199,dark,blicket_images/lc_off.jpg,,125133,,feedback,15,image-keyboard-response,,
688,color_on,True,1,,,,j,on,,,,,,,blicket_images/dc.jpg,,0.0-12.0,,,,j,1291,dark,blicket_images/dc.jpg,,126425,,blicket,16,image-keyboard-response,,
688,color_on,,,,,,,,,,,,,,blicket_images/dc.jpg,,0.0-13.0,,,, ,1071,dark,blicket_images/dc_on.jpg,,127497,,feedback,17,image-keyboard-response,,
688,color_on,False,0,,,,f,off,,,,,,,blicket_images/ls.jpg,,0.0-14.0,,,,j,1744,dark,blicket_images/ls.jpg,,129242,,blicket,18,image-keyboard-response,,
688,color_on,,,,,,,,,,,,,,blicket_images/ls.jpg,,0.0-15.0,,,, ,1196,dark,blicket_images/ls_off.jpg,,130439,,feedback,19,image-keyboard-response,,
688,color_on,True,1,,,,j,on,,,,,,,blicket_images/ds.jpg,,0.0-16.0,,,,j,1153,dark,blicket_images/ds.jpg,,131593,,blicket,20,image-keyboard-response,,
688,color_on,,,,,,,,,,,,,,blicket_images/ds.jpg,,0.0-17.0,,,, ,1184,dark,blicket_images/ds_on.jpg,,132778,,feedback,21,image-keyboard-response,,
688,color_on,True,1,,,,f,off,,,,,,,blicket_images/lc.jpg,,0.0-18.0,,,,f,2613,dark,blicket_images/lc.jpg,,135392,,blicket,22,image-keyboard-response,,
688,color_on,,,,,,,,,,,,,,blicket_images/lc.jpg,,0.0-19.0,,,, ,1043,dark,blicket_images/lc_off.jpg,,136436,,feedback,23,image-keyboard-response,,
688,color_on,True,1,,,,f,off,,,,,,,blicket_images/ls.jpg,,0.0-20.0,,,,f,984,dark,blicket_images/ls.jpg,,137420,,blicket,24,image-keyboard-response,,
688,color_on,,,,,,,,,,,,,,blicket_images/ls.jpg,,0.0-21.0,,,, ,1097,dark,blicket_images/ls_off.jpg,,138518,,feedback,25,image-keyboard-response,,
688,color_on,True,1,,,,j,on,,,,,,,blicket_images/ds.jpg,,0.0-22.0,,,,j,956,dark,blicket_images/ds.jpg,,139475,,blicket,26,image-keyboard-response,,
688,color_on,,,,,,,,,,,,,,blicket_images/ds.jpg,,0.0-23.0,,,, ,825,dark,blicket_images/ds_on.jpg,,140301,,feedback,27,image-keyboard-response,,
688,color_on,True,1,,,,j,on,,,,,,,blicket_images/dc.jpg,,0.0-24.0,,,,j,665,dark,blicket_images/dc.jpg,,140967,,blicket,28,image-keyboard-response,,
688,color_on,,,,,,,,,,,,,,blicket_images/dc.jpg,,0.0-25.0,,,, ,596,dark,blicket_images/dc_on.jpg,,141564,,feedback,29,image-keyboard-response,,
688,color_on,True,1,,,,f,off,,,,,,,blicket_images/ls.jpg,,0.0-26.0,,,,f,800,dark,blicket_images/ls.jpg,,142366,,blicket,30,image-keyboard-response,,
688,color_on,,,,,,,,,,,,,,blicket_images/ls.jpg,,0.0-27.0,,,, ,532,dark,blicket_images/ls_off.jpg,,142899,,feedback,31,image-keyboard-response,,
688,color_on,True,1,,,,j,on,,,,,,,blicket_images/ds.jpg,,0.0-28.0,,,,j,778,dark,blicket_images/ds.jpg,,143678,,blicket,32,image-keyboard-response,,
688,color_on,,,,,,,,,,,,,,blicket_images/ds.jpg,,0.0-29.0,,,, ,674,dark,blicket_images/ds_on.jpg,,144353,,feedback,33,image-keyboard-response,,
688,color_on,True,1,,,,j,on,,,,,,,blicket_images/dc.jpg,,0.0-30.0,,,,j,953,dark,blicket_images/dc.jpg,,145308,,blicket,34,image-keyboard-response,,
688,color_on,,,,,,,,,,,,,,blicket_images/dc.jpg,,0.0-31.0,,,, ,568,dark,blicket_images/dc_on.jpg,,145877,,feedback,35,image-keyboard-response,,
688,color_on,True,1,,,,f,off,,,,,,,blicket_images/ls.jpg,,0.0-32.0,,,,f,727,dark,blicket_images/ls.jpg,,146605,,blicket,36,image-keyboard-response,,
688,color_on,,,,,,,,,,,,,,blicket_images/ls.jpg,,0.0-33.0,,,, ,913,dark,blicket_images/ls_off.jpg,,147518,,feedback,37,image-keyboard-response,,
688,color_on,True,1,,,,f,off,,,,,,,blicket_images/lc.jpg,,0.0-34.0,,,,f,698,dark,blicket_images/lc.jpg,,148216,,blicket,38,image-keyboard-response,,
688,color_on,,,,,,,,,,,,,,blicket_images/lc.jpg,,0.0-35.0,,,, ,884,dark,blicket_images/lc_off.jpg,,149101,,feedback,39,image-keyboard-response,,
688,color_on,True,1,,,,j,on,,,,,,,blicket_images/dc.jpg,,0.0-36.0,,,,j,632,dark,blicket_images/dc.jpg,,149734,,blicket,40,image-keyboard-response,,
688,color_on,False,0,,,blicket_images/dc.jpg,,dc,,,,,,,,blicket_images/lc.jpg,0.0-37.0,,,,lc,8119,dark,"Which of these options shows the image from the last trial, that you just saw?",,157855,,pop_quiz,41,html-button-response,,
688,color_on,True,1,,,,,"['dc', 'ds']",,,,,,,,,0.0-38.0,,[0],,"['dc', 'ds']",6186,dark,,,164045,,rule_question,42,survey-multi-select,,
688,color_on,,,,,,,,,,,,,,,,0.0-39.0,,,,0,5743,dark,"<p>Thank you for participating!</p>You answered 14 out of 16 trials correctly, and will recieve a $0.35 bonus.<p>Now you will complete a short survey before finishing the experiment.</p>",,169790,,,43,html-button-response,,
688,color_on,,,51,0.35000000000000003,,,,Non-Hispanic,,,,I used feedback on whether my guess was correct or not to learn which objects were blickets.,Male,,,0.0-40.0,0.875,,Asian,"{'age': '51', 'race': 'Asian', 'gender': 'Male', 'feedback': 'I used feedback on whether my guess was correct or not to learn which objects were blickets.', 'ethnicity': 'Non-Hispanic', 'other_race': '', 'other_gender': ''}",75643,dark,,,245434,,exit_survey,44,survey-html-form,,
663,color_on,,,,,,,,,[],[],[],,,,,0.0-0.0,,,,,,dark,,True,674,False,,0,preload,,
663,color_on,,,,,,,,,[],[],[],,,,,0.0-1.0,,,,,,dark,,True,964,False,,1,preload,,
663,color_on,,,,,,,,,,,,,,,,0.0-2.0,,,,,,dark,,True,18582,,,2,fullscreen,,
663,color_on,,,,,,,,,,,,,,,,0.0-3.0,,,,0,2062,dark,"<p><b>Consent Form</b></p> <div style=""text-align:left;background-color:lightblue; padding:20px; max-width:900px;""><p><b>Description:</b> Welcome! You are invited to participate in a research study in cognitive psychology. You will be asked to perform various tasks on a computer which may include: looking at images or videos, listening to sounds, reading scenarios, or playing games. You may be asked a number of different questions about making judgments and intepreting people's actions. All information collected will remain confidential. </p> <p> <b>Risks and benefits:</b> Risks involved in this study are the same as those normally associated with using a computer (e.g., mild eye/arm strain). If you have any pre- existing conditions that might make reading and completing a computer-based survey strenuous for you, you should probably elect to not participate in this study. If at any time during the study you feel unable to participate because you are experiencing strain, you may end your participation without penalty. We cannot and do not guarantee or promise that you will receive any benefits from this study. Your decision whether or not to participate in this study will not affect your employment, medical care, and/or grades in school. </p><p><b>Time involvement:</b> Your participation in this experiment will take  5 minutes. </p><p><b> Payment:</b> If recruitment materials indicate payment (e.g., Prolific or other recruitment), you will receive compensation as indicated. </p><p><b>Subject's rights:</b> If you have read this notice and have decided to participate in this project, please understand your participation is voluntary and you have the right to withdraw your consent or discontinue participation at any time without penalty or loss of benefits to which you are otherwise entitled. You have the right to refuse to answer particular questions. Your individual privacy will be maintained in all published and written data resulting from the study. </p><p><b>Contact information:</b> If you have any questions, concerns or complaints about this research study, its procedures, or risks and benefits, you should ask the Protocol Director, (Professor Tobias Gerstenberg, Phone: (650) 725-2431; Email: gerstenberg@stanford.edu). </p><p><b>Independent contact:</b> If you are not satisfied with how this study is being conducted, or if you have any concerns, complaints, or general questions about the research or your rights as a participant, please contact the Stanford Institutional Review Board (IRB) to speak to someone independent of the research team via email at irb2-manager@lists.stanford.edu, or via phone at (650) 723-2480 or toll free at 1-866-680-2906. You can also write to the Stanford IRB, Stanford University, 3000 El Camino Real, Five Palo Alto Square, 4th Floor, Palo Alto, CA 94306. </p><p>You may want to print a copy of this consent form to keep. By clicking the button below, you acknowledge that you have read the above information, that you are 18 years of age, or older and give your consent to participate in our internet-based study and consent for us to analyze the resulting data. </p> </div><p> Do you agree with the terms of the experiment as explained above? </p>",,20648,,,3,html-button-response,,
663,color_on,,,,,,,,,,,,,,,,0.0-4.0-0.0,,,,,29323,dark,,,49973,,instructions_pt1,4,instructions,"[{'page_index': 0, 'viewing_time': 4979}, {'page_index': 1, 'viewing_time': 3061}, {'page_index': 2, 'viewing_time': 2587}, {'page_index': 3, 'viewing_time': 14886}, {'page_index': 4, 'viewing_time': 3810}]",
663,color_on,True,,,,,,j,,,,,,,,,0.0-4.0-1.0-0.0,,,,j,26291,dark,blicket_images/red_pyramid.jpg,,76269,,comprehension_quiz,5,image-keyboard-response,,
663,color_on,True,,,,,, ,,,,,,,,,0.0-4.0-1.0-1.0,,,, ,3394,dark,blicket_images/red_pyramid_on.jpg,,79665,,comprehension_quiz,6,image-keyboard-response,,
663,color_on,False,,,,,,f,,,,,,,,,0.0-4.0-1.0-2.0,,,,j,1172,dark,blicket_images/purple_prism.jpg,,80839,,comprehension_quiz,7,image-keyboard-response,,
663,color_on,True,,,,,, ,,,,,,,,,0.0-4.0-1.0-3.0,,,, ,1212,dark,blicket_images/purple_prism_off.jpg,,82055,,comprehension_quiz,8,image-keyboard-response,,
663,color_on,False,,,,,,,,,,,,,,,0.0-4.0-2.0-0.0,,,,0,6942,dark,<p> Oops! You have answered one or more questions incorrectly.</p><p> Please Review the instructions again before continuing with the experiment </p>,,88997,,fail_message,9,html-button-response,,
663,color_on,,,,,,,,,,,,,,,,0.0-4.1-0.1,,,,,12827,dark,,,101825,,instructions_pt1,10,instructions,"[{'page_index': 0, 'viewing_time': 1399}, {'page_index': 1, 'viewing_time': 3087}, {'page_index': 2, 'viewing_time': 2219}, {'page_index': 3, 'viewing_time': 3698}, {'page_index': 4, 'viewing_time': 2424}]",
663,color_on,True,,,,,,j,,,,,,,,,0.0-4.1-1.1-0.1,,,,j,2906,dark,blicket_images/red_pyramid.jpg,,104732,,comprehension_quiz,11,image-keyboard-response,,
663,color_on,True,,,,,, ,,,,,,,,,0.0-4.1-1.1-1.1,,,, ,1602,dark,blicket_images/red_pyramid_on.jpg,,106335,,comprehension_quiz,12,image-keyboard-response,,
663,color_on,True,,,,,,f,,,,,,,,,0.0-4.1-1.1-2.1,,,,f,6589,dark,blicket_images/purple_prism.jpg,,112925,,comprehension_quiz,13,image-keyboard-response,,
663,color_on,True,,,,,, ,,,,,,,,,0.0-4.1-1.1-3.1,,,, ,1040,dark,blicket_images/purple_prism_off.jpg,,113966,,comprehension_quiz,14,image-keyboard-response,,
663,color_on,,,,,,,,,,,,,,,,0.0-5.0,,,,,39001,dark,,,152967,,,15,instructions,"[{'page_index': 0, 'viewing_time': 5709}, {'page_index': 1, 'viewing_time': 2323}, {'page_index': 2, 'viewing_time': 938}, {'page_index': 3, 'viewing_time': 1603}, {'page_index': 4, 'viewing_time': 686}, {'page_index': 5, 'viewing_time': 5391}, {'page_index': 6, 'viewing_time': 8540}, {'page_index': 7, 'viewing_time': 12293}, {'page_index': 8, 'viewing_time': 1518}]",
663,color_on,False,0,,,,f,off,,,,,,,blicket_images/ls.jpg,,0.0-6.0,,,,j,8832,dark,blicket_images/ls.jpg,,161802,,blicket,16,image-keyboard-response,,
663,color_on,,,,,,,,,,,,,,blicket_images/ls.jpg,,0.0-7.0,,,, ,1728,dark,blicket_images/ls_off.jpg,,163533,,feedback,17,image-keyboard-response,,
663,color_on,True,1,,,,j,on,,,,,,,blicket_images/ds.jpg,,0.0-8.0,,,,j,2430,dark,blicket_images/ds.jpg,,165965,,blicket,18,image-keyboard-response,,
663,color_on,,,,,,,,,,,,,,blicket_images/ds.jpg,,0.0-9.0,,,, ,1924,dark,blicket_images/ds_on.jpg,,167892,,feedback,19,image-keyboard-response,,
663,color_on,False,0,,,,j,on,,,,,,,blicket_images/dc.jpg,,0.0-10.0,,,,f,3592,dark,blicket_images/dc.jpg,,171487,,blicket,20,image-keyboard-response,,
663,color_on,,,,,,,,,,,,,,blicket_images/dc.jpg,,0.0-11.0,,,, ,3829,dark,blicket_images/dc_on.jpg,,175319,,feedback,21,image-keyboard-response,,
663,color_on,True,1,,,,f,off,,,,,,,blicket_images/lc.jpg,,0.0-12.0,,,,f,1762,dark,blicket_images/lc.jpg,,177084,,blicket,22,image-keyboard-response,,
663,color_on,,,,,,,,,,,,,,blicket_images/lc.jpg,,0.0-13.0,,,, ,655,dark,blicket_images/lc_off.jpg,,177741,,feedback,23,image-keyboard-response,,
663,color_on,True,1,,,,j,on,,,,,,,blicket_images/ds.jpg,,0.0-14.0,,,,j,3005,dark,blicket_images/ds.jpg,,180748,,blicket,24,image-keyboard-response,,
663,color_on,,,,,,,,,,,,,,blicket_images/ds.jpg,,0.0-15.0,,,, ,570,dark,blicket_images/ds_on.jpg,,181318,,feedback,25,image-keyboard-response,,
663,color_on,True,1,,,,f,off,,,,,,,blicket_images/ls.jpg,,0.0-16.0,,,,f,1216,dark,blicket_images/ls.jpg,,182535,,blicket,26,image-keyboard-response,,
663,color_on,,,,,,,,,,,,,,blicket_images/ls.jpg,,0.0-17.0,,,, ,470,dark,blicket_images/ls_off.jpg,,183007,,feedback,27,image-keyboard-response,,
663,color_on,True,1,,,,j,on,,,,,,,blicket_images/ds.jpg,,0.0-18.0,,,,j,1861,dark,blicket_images/ds.jpg,,184869,,blicket,28,image-keyboard-response,,
663,color_on,,,,,,,,,,,,,,blicket_images/ds.jpg,,0.0-19.0,,,, ,594,dark,blicket_images/ds_on.jpg,,185464,,feedback,29,image-keyboard-response,,
663,color_on,True,1,,,,f,off,,,,,,,blicket_images/lc.jpg,,0.0-20.0,,,,f,1039,dark,blicket_images/lc.jpg,,186504,,blicket,30,image-keyboard-response,,
663,color_on,,,,,,,,,,,,,,blicket_images/lc.jpg,,0.0-21.0,,,, ,967,dark,blicket_images/lc_off.jpg,,187472,,feedback,31,image-keyboard-response,,
663,color_on,True,1,,,,f,off,,,,,,,blicket_images/ls.jpg,,0.0-22.0,,,,f,1066,dark,blicket_images/ls.jpg,,188539,,blicket,32,image-keyboard-response,,
663,color_on,,,,,,,,,,,,,,blicket_images/ls.jpg,,0.0-23.0,,,, ,550,dark,blicket_images/ls_off.jpg,,189090,,feedback,33,image-keyboard-response,,
663,color_on,True,1,,,,j,on,,,,,,,blicket_images/dc.jpg,,0.0-24.0,,,,j,1299,dark,blicket_images/dc.jpg,,190390,,blicket,34,image-keyboard-response,,
663,color_on,,,,,,,,,,,,,,blicket_images/dc.jpg,,0.0-25.0,,,, ,896,dark,blicket_images/dc_on.jpg,,191288,,feedback,35,image-keyboard-response,,
663,color_on,True,1,,,,f,off,,,,,,,blicket_images/lc.jpg,,0.0-26.0,,,,f,897,dark,blicket_images/lc.jpg,,192186,,blicket,36,image-keyboard-response,,
663,color_on,,,,,,,,,,,,,,blicket_images/lc.jpg,,0.0-27.0,,,, ,476,dark,blicket_images/lc_off.jpg,,192663,,feedback,37,image-keyboard-response,,
663,color_on,True,1,,,,j,on,,,,,,,blicket_images/dc.jpg,,0.0-28.0,,,,j,693,dark,blicket_images/dc.jpg,,193357,,blicket,38,image-keyboard-response,,
663,color_on,,,,,,,,,,,,,,blicket_images/dc.jpg,,0.0-29.0,,,, ,572,dark,blicket_images/dc_on.jpg,,193929,,feedback,39,image-keyboard-response,,
663,color_on,True,1,,,,j,on,,,,,,,blicket_images/ds.jpg,,0.0-30.0,,,,j,535,dark,blicket_images/ds.jpg,,194465,,blicket,40,image-keyboard-response,,
663,color_on,,,,,,,,,,,,,,blicket_images/ds.jpg,,0.0-31.0,,,, ,425,dark,blicket_images/ds_on.jpg,,194892,,feedback,41,image-keyboard-response,,
663,color_on,True,1,,,,f,off,,,,,,,blicket_images/ls.jpg,,0.0-32.0,,,,f,714,dark,blicket_images/ls.jpg,,195606,,blicket,42,image-keyboard-response,,
663,color_on,,,,,,,,,,,,,,blicket_images/ls.jpg,,0.0-33.0,,,, ,547,dark,blicket_images/ls_off.jpg,,196154,,feedback,43,image-keyboard-response,,
663,color_on,True,1,,,,f,off,,,,,,,blicket_images/lc.jpg,,0.0-34.0,,,,f,1565,dark,blicket_images/lc.jpg,,197720,,blicket,44,image-keyboard-response,,
663,color_on,,,,,,,,,,,,,,blicket_images/lc.jpg,,0.0-35.0,,,, ,450,dark,blicket_images/lc_off.jpg,,198171,,feedback,45,image-keyboard-response,,
663,color_on,True,1,,,,j,on,,,,,,,blicket_images/dc.jpg,,0.0-36.0,,,,j,763,dark,blicket_images/dc.jpg,,198934,,blicket,46,image-keyboard-response,,
663,color_on,False,0,,,blicket_images/dc.jpg,,dc,,,,,,,,blicket_images/lc.jpg,0.0-37.0,,,,lc,10550,dark,"Which of these options shows the image from the last trial, that you just saw?",,209486,,pop_quiz,47,html-button-response,,
663,color_on,True,1,,,,,"['dc', 'ds']",,,,,,,,,0.0-38.0,,[0],,"['dc', 'ds']",6360,dark,,,215851,,rule_question,48,survey-multi-select,,
663,color_on,,,,,,,,,,,,,,,,0.0-39.0,,,,0,6153,dark,"<p>Thank you for participating!</p>You answered 14 out of 16 trials correctly, and will recieve a $0.35 bonus.<p>Now you will complete a short survey before finishing the experiment.</p>",,222005,,,49,html-button-response,,
663,color_on,,,39,0.35000000000000003,,,,Non-Hispanic,,,,,Male,,,0.0-40.0,0.875,,Asian,"{'age': '39', 'race': 'Asian', 'gender': 'Male', 'feedback': '', 'ethnicity': 'Non-Hispanic', 'other_race': '', 'other_gender': ''}",10859,dark,,,232867,,exit_survey,50,survey-html-form,,
710,color_on,,,,,,,,,[],[],[],,,,,0.0-0.0,,,,,,dark,,True,125,False,,0,preload,,
710,color_on,,,,,,,,,[],[],[],,,,,0.0-1.0,,,,,,dark,,True,259,False,,1,preload,,
710,color_on,,,,,,,,,,,,,,,,0.0-2.0,,,,,,dark,,True,7985,,,2,fullscreen,,
710,color_on,,,,,,,,,,,,,,,,0.0-3.0,,,,0,15414,dark,"<p><b>Consent Form</b></p> <div style=""text-align:left;background-color:lightblue; padding:20px; max-width:900px;""><p><b>Description:</b> Welcome! You are invited to participate in a research study in cognitive psychology. You will be asked to perform various tasks on a computer which may include: looking at images or videos, listening to sounds, reading scenarios, or playing games. You may be asked a number of different questions about making judgments and intepreting people's actions. All information collected will remain confidential. </p> <p> <b>Risks and benefits:</b> Risks involved in this study are the same as those normally associated with using a computer (e.g., mild eye/arm strain). If you have any pre- existing conditions that might make reading and completing a computer-based survey strenuous for you, you should probably elect to not participate in this study. If at any time during the study you feel unable to participate because you are experiencing strain, you may end your participation without penalty. We cannot and do not guarantee or promise that you will receive any benefits from this study. Your decision whether or not to participate in this study will not affect your employment, medical care, and/or grades in school. </p><p><b>Time involvement:</b> Your participation in this experiment will take  5 minutes. </p><p><b> Payment:</b> If recruitment materials indicate payment (e.g., Prolific or other recruitment), you will receive compensation as indicated. </p><p><b>Subject's rights:</b> If you have read this notice and have decided to participate in this project, please understand your participation is voluntary and you have the right to withdraw your consent or discontinue participation at any time without penalty or loss of benefits to which you are otherwise entitled. You have the right to refuse to answer particular questions. Your individual privacy will be maintained in all published and written data resulting from the study. </p><p><b>Contact information:</b> If you have any questions, concerns or complaints about this research study, its procedures, or risks and benefits, you should ask the Protocol Director, (Professor Tobias Gerstenberg, Phone: (650) 725-2431; Email: gerstenberg@stanford.edu). </p><p><b>Independent contact:</b> If you are not satisfied with how this study is being conducted, or if you have any concerns, complaints, or general questions about the research or your rights as a participant, please contact the Stanford Institutional Review Board (IRB) to speak to someone independent of the research team via email at irb2-manager@lists.stanford.edu, or via phone at (650) 723-2480 or toll free at 1-866-680-2906. You can also write to the Stanford IRB, Stanford University, 3000 El Camino Real, Five Palo Alto Square, 4th Floor, Palo Alto, CA 94306. </p><p>You may want to print a copy of this consent form to keep. By clicking the button below, you acknowledge that you have read the above information, that you are 18 years of age, or older and give your consent to participate in our internet-based study and consent for us to analyze the resulting data. </p> </div><p> Do you agree with the terms of the experiment as explained above? </p>",,23403,,,3,html-button-response,,
710,color_on,,,,,,,,,,,,,,,,0.0-4.0-0.0,,,,,63167,dark,,,86572,,instructions_pt1,4,instructions,"[{'page_index': 0, 'viewing_time': 30804}, {'page_index': 1, 'viewing_time': 19090}, {'page_index': 2, 'viewing_time': 4523}, {'page_index': 3, 'viewing_time': 5330}, {'page_index': 4, 'viewing_time': 3418}]",
710,color_on,True,,,,,,j,,,,,,,,,0.0-4.0-1.0-0.0,,,,j,22438,dark,blicket_images/red_pyramid.jpg,,109036,,comprehension_quiz,5,image-keyboard-response,,
710,color_on,True,,,,,, ,,,,,,,,,0.0-4.0-1.0-1.0,,,, ,6959,dark,blicket_images/red_pyramid_on.jpg,,116005,,comprehension_quiz,6,image-keyboard-response,,
710,color_on,True,,,,,,f,,,,,,,,,0.0-4.0-1.0-2.0,,,,f,3766,dark,blicket_images/purple_prism.jpg,,119777,,comprehension_quiz,7,image-keyboard-response,,
710,color_on,True,,,,,, ,,,,,,,,,0.0-4.0-1.0-3.0,,,, ,5172,dark,blicket_images/purple_prism_off.jpg,,124957,,comprehension_quiz,8,image-keyboard-response,,
710,color_on,,,,,,,,,,,,,,,,0.0-5.0,,,,,32133,dark,,,157096,,,9,instructions,"[{'page_index': 0, 'viewing_time': 7729}, {'page_index': 1, 'viewing_time': 4218}, {'page_index': 2, 'viewing_time': 2008}, {'page_index': 3, 'viewing_time': 1770}, {'page_index': 4, 'viewing_time': 1497}, {'page_index': 5, 'viewing_time': 6191}, {'page_index': 6, 'viewing_time': 1871}, {'page_index': 7, 'viewing_time': 5817}, {'page_index': 8, 'viewing_time': 1030}]",
710,color_on,True,1,,,,j,on,,,,,,,blicket_images/ds.jpg,,0.0-6.0,,,,j,3259,dark,blicket_images/ds.jpg,,160361,,blicket,10,image-keyboard-response,,
710,color_on,,,,,,,,,,,,,,blicket_images/ds.jpg,,0.0-7.0,,,, ,3860,dark,blicket_images/ds_on.jpg,,164226,,feedback,11,image-keyboard-response,,
710,color_on,True,1,,,,j,on,,,,,,,blicket_images/dc.jpg,,0.0-8.0,,,,j,2206,dark,blicket_images/dc.jpg,,166437,,blicket,12,image-keyboard-response,,
710,color_on,,,,,,,,,,,,,,blicket_images/dc.jpg,,0.0-9.0,,,, ,1301,dark,blicket_images/dc_on.jpg,,167743,,feedback,13,image-keyboard-response,,
710,color_on,True,1,,,,j,on,,,,,,,blicket_images/ds.jpg,,0.0-10.0,,,,j,1106,dark,blicket_images/ds.jpg,,168854,,blicket,14,image-keyboard-response,,
710,color_on,,,,,,,,,,,,,,blicket_images/ds.jpg,,0.0-11.0,,,, ,834,dark,blicket_images/ds_on.jpg,,169691,,feedback,15,image-keyboard-response,,
710,color_on,True,1,,,,f,off,,,,,,,blicket_images/ls.jpg,,0.0-12.0,,,,f,872,dark,blicket_images/ls.jpg,,170581,,blicket,16,image-keyboard-response,,
710,color_on,,,,,,,,,,,,,,blicket_images/ls.jpg,,0.0-13.0,,,, ,867,dark,blicket_images/ls_off.jpg,,171453,,feedback,17,image-keyboard-response,,
710,color_on,True,1,,,,j,on,,,,,,,blicket_images/ds.jpg,,0.0-14.0,,,,j,1155,dark,blicket_images/ds.jpg,,172612,,blicket,18,image-keyboard-response,,
710,color_on,,,,,,,,,,,,,,blicket_images/ds.jpg,,0.0-15.0,,,, ,730,dark,blicket_images/ds_on.jpg,,173346,,feedback,19,image-keyboard-response,,
710,color_on,True,1,,,,f,off,,,,,,,blicket_images/ls.jpg,,0.0-16.0,,,,f,896,dark,blicket_images/ls.jpg,,174246,,blicket,20,image-keyboard-response,,
710,color_on,,,,,,,,,,,,,,blicket_images/ls.jpg,,0.0-17.0,,,, ,1014,dark,blicket_images/ls_off.jpg,,175266,,feedback,21,image-keyboard-response,,
710,color_on,True,1,,,,j,on,,,,,,,blicket_images/ds.jpg,,0.0-18.0,,,,j,2244,dark,blicket_images/ds.jpg,,177515,,blicket,22,image-keyboard-response,,
710,color_on,,,,,,,,,,,,,,blicket_images/ds.jpg,,0.0-19.0,,,, ,907,dark,blicket_images/ds_on.jpg,,178425,,feedback,23,image-keyboard-response,,
710,color_on,True,1,,,,j,on,,,,,,,blicket_images/dc.jpg,,0.0-20.0,,,,j,1155,dark,blicket_images/dc.jpg,,179584,,blicket,24,image-keyboard-response,,
710,color_on,,,,,,,,,,,,,,blicket_images/dc.jpg,,0.0-21.0,,,, ,609,dark,blicket_images/dc_on.jpg,,180198,,feedback,25,image-keyboard-response,,
710,color_on,True,1,,,,f,off,,,,,,,blicket_images/lc.jpg,,0.0-22.0,,,,f,783,dark,blicket_images/lc.jpg,,180985,,blicket,26,image-keyboard-response,,
710,color_on,,,,,,,,,,,,,,blicket_images/lc.jpg,,0.0-23.0,,,, ,833,dark,blicket_images/lc_off.jpg,,181844,,feedback,27,image-keyboard-response,,
710,color_on,True,1,,,,j,on,,,,,,,blicket_images/dc.jpg,,0.0-24.0,,,,j,1816,dark,blicket_images/dc.jpg,,183663,,blicket,28,image-keyboard-response,,
710,color_on,,,,,,,,,,,,,,blicket_images/dc.jpg,,0.0-25.0,,,, ,713,dark,blicket_images/dc_on.jpg,,184379,,feedback,29,image-keyboard-response,,
710,color_on,True,1,,,,f,off,,,,,,,blicket_images/lc.jpg,,0.0-26.0,,,,f,884,dark,blicket_images/lc.jpg,,185267,,blicket,30,image-keyboard-response,,
710,color_on,,,,,,,,,,,,,,blicket_images/lc.jpg,,0.0-27.0,,,, ,747,dark,blicket_images/lc_off.jpg,,186018,,feedback,31,image-keyboard-response,,
710,color_on,True,1,,,,f,off,,,,,,,blicket_images/ls.jpg,,0.0-28.0,,,,f,881,dark,blicket_images/ls.jpg,,186902,,blicket,32,image-keyboard-response,,
710,color_on,,,,,,,,,,,,,,blicket_images/ls.jpg,,0.0-29.0,,,, ,644,dark,blicket_images/ls_off.jpg,,187551,,feedback,33,image-keyboard-response,,
710,color_on,True,1,,,,f,off,,,,,,,blicket_images/lc.jpg,,0.0-30.0,,,,f,858,dark,blicket_images/lc.jpg,,188412,,blicket,34,image-keyboard-response,,
710,color_on,,,,,,,,,,,,,,blicket_images/lc.jpg,,0.0-31.0,,,, ,735,dark,blicket_images/lc_off.jpg,,189151,,feedback,35,image-keyboard-response,,
710,color_on,True,1,,,,j,on,,,,,,,blicket_images/dc.jpg,,0.0-32.0,,,,j,665,dark,blicket_images/dc.jpg,,189821,,blicket,36,image-keyboard-response,,
710,color_on,,,,,,,,,,,,,,blicket_images/dc.jpg,,0.0-33.0,,,, ,656,dark,blicket_images/dc_on.jpg,,190499,,feedback,37,image-keyboard-response,,
710,color_on,True,1,,,,f,off,,,,,,,blicket_images/lc.jpg,,0.0-34.0,,,,f,886,dark,blicket_images/lc.jpg,,191390,,blicket,38,image-keyboard-response,,
710,color_on,,,,,,,,,,,,,,blicket_images/lc.jpg,,0.0-35.0,,,, ,631,dark,blicket_images/lc_off.jpg,,192025,,feedback,39,image-keyboard-response,,
710,color_on,True,1,,,,j,on,,,,,,,blicket_images/dc.jpg,,0.0-36.0,,,,j,1557,dark,blicket_images/dc.jpg,,193586,,blicket,40,image-keyboard-response,,
710,color_on,True,1,,,blicket_images/dc.jpg,,dc,,,,,,,,blicket_images/dc.jpg,0.0-37.0,,,,dc,8257,dark,"Which of these options shows the image from the last trial, that you just saw?",,201847,,pop_quiz,41,html-button-response,,
710,color_on,True,1,,,,,"['dc', 'ds']",,,,,,,,,0.0-38.0,,[0],,"['dc', 'ds']",7039,dark,,,208902,,rule_question,42,survey-multi-select,,
710,color_on,,,,,,,,,,,,,,,,0.0-39.0,,,,0,4641,dark,"<p>Thank you for participating!</p>You answered 16 out of 16 trials correctly, and will recieve a $0.40 bonus.<p>Now you will complete a short survey before finishing the experiment.</p>",,213548,,,43,html-button-response,,
710,color_on,,,69,0.4,,,,Non-Hispanic,,,,,Male,,,0.0-40.0,1,,White,"{'age': '69', 'race': 'White', 'gender': 'Male', 'feedback': '', 'ethnicity': 'Non-Hispanic', 'other_race': '', 'other_gender': ''}",18297,dark,,,231852,,exit_survey,44,survey-html-form,,
692,color_on,,,,,,,,,[],[],[],,,,,0.0-0.0,,,,,,dark,,True,313,False,,0,preload,,
692,color_on,,,,,,,,,[],[],[],,,,,0.0-1.0,,,,,,dark,,True,537,False,,1,preload,,
692,color_on,,,,,,,,,,,,,,,,0.0-2.0,,,,,,dark,,True,3509,,,2,fullscreen,,
692,color_on,,,,,,,,,,,,,,,,0.0-3.0,,,,0,3316,dark,"<p><b>Consent Form</b></p> <div style=""text-align:left;background-color:lightblue; padding:20px; max-width:900px;""><p><b>Description:</b> Welcome! You are invited to participate in a research study in cognitive psychology. You will be asked to perform various tasks on a computer which may include: looking at images or videos, listening to sounds, reading scenarios, or playing games. You may be asked a number of different questions about making judgments and intepreting people's actions. All information collected will remain confidential. </p> <p> <b>Risks and benefits:</b> Risks involved in this study are the same as those normally associated with using a computer (e.g., mild eye/arm strain). If you have any pre- existing conditions that might make reading and completing a computer-based survey strenuous for you, you should probably elect to not participate in this study. If at any time during the study you feel unable to participate because you are experiencing strain, you may end your participation without penalty. We cannot and do not guarantee or promise that you will receive any benefits from this study. Your decision whether or not to participate in this study will not affect your employment, medical care, and/or grades in school. </p><p><b>Time involvement:</b> Your participation in this experiment will take  5 minutes. </p><p><b> Payment:</b> If recruitment materials indicate payment (e.g., Prolific or other recruitment), you will receive compensation as indicated. </p><p><b>Subject's rights:</b> If you have read this notice and have decided to participate in this project, please understand your participation is voluntary and you have the right to withdraw your consent or discontinue participation at any time without penalty or loss of benefits to which you are otherwise entitled. You have the right to refuse to answer particular questions. Your individual privacy will be maintained in all published and written data resulting from the study. </p><p><b>Contact information:</b> If you have any questions, concerns or complaints about this research study, its procedures, or risks and benefits, you should ask the Protocol Director, (Professor Tobias Gerstenberg, Phone: (650) 725-2431; Email: gerstenberg@stanford.edu). </p><p><b>Independent contact:</b> If you are not satisfied with how this study is being conducted, or if you have any concerns, complaints, or general questions about the research or your rights as a participant, please contact the Stanford Institutional Review Board (IRB) to speak to someone independent of the research team via email at irb2-manager@lists.stanford.edu, or via phone at (650) 723-2480 or toll free at 1-866-680-2906. You can also write to the Stanford IRB, Stanford University, 3000 El Camino Real, Five Palo Alto Square, 4th Floor, Palo Alto, CA 94306. </p><p>You may want to print a copy of this consent form to keep. By clicking the button below, you acknowledge that you have read the above information, that you are 18 years of age, or older and give your consent to participate in our internet-based study and consent for us to analyze the resulting data. </p> </div><p> Do you agree with the terms of the experiment as explained above? </p>",,6826,,,3,html-button-response,,
692,color_on,,,,,,,,,,,,,,,,0.0-4.0-0.0,,,,,23200,dark,,,30027,,instructions_pt1,4,instructions,"[{'page_index': 0, 'viewing_time': 14426}, {'page_index': 1, 'viewing_time': 2254}, {'page_index': 2, 'viewing_time': 1466}, {'page_index': 3, 'viewing_time': 1627}, {'page_index': 4, 'viewing_time': 3427}]",
692,color_on,True,,,,,,j,,,,,,,,,0.0-4.0-1.0-0.0,,,,j,10744,dark,blicket_images/red_pyramid.jpg,,40772,,comprehension_quiz,5,image-keyboard-response,,
692,color_on,True,,,,,, ,,,,,,,,,0.0-4.0-1.0-1.0,,,, ,1398,dark,blicket_images/red_pyramid_on.jpg,,42171,,comprehension_quiz,6,image-keyboard-response,,
692,color_on,False,,,,,,f,,,,,,,,,0.0-4.0-1.0-2.0,,,,j,596,dark,blicket_images/purple_prism.jpg,,42768,,comprehension_quiz,7,image-keyboard-response,,
692,color_on,True,,,,,, ,,,,,,,,,0.0-4.0-1.0-3.0,,,, ,355,dark,blicket_images/purple_prism_off.jpg,,43124,,comprehension_quiz,8,image-keyboard-response,,
692,color_on,False,,,,,,,,,,,,,,,0.0-4.0-2.0-0.0,,,,0,5507,dark,<p> Oops! You have answered one or more questions incorrectly.</p><p> Please Review the instructions again before continuing with the experiment </p>,,48632,,fail_message,9,html-button-response,,
692,color_on,,,,,,,,,,,,,,,,0.0-4.1-0.1,,,,,14647,dark,,,63279,,instructions_pt1,10,instructions,"[{'page_index': 0, 'viewing_time': 1458}, {'page_index': 1, 'viewing_time': 1046}, {'page_index': 2, 'viewing_time': 1244}, {'page_index': 3, 'viewing_time': 3461}, {'page_index': 4, 'viewing_time': 2412}, {'page_index': 3, 'viewing_time': 921}, {'page_index': 2, 'viewing_time': 561}, {'page_index': 3, 'viewing_time': 1181}, {'page_index': 4, 'viewing_time': 2363}]",
692,color_on,True,,,,,,j,,,,,,,,,0.0-4.1-1.1-0.1,,,,j,3042,dark,blicket_images/red_pyramid.jpg,,66322,,comprehension_quiz,11,image-keyboard-response,,
692,color_on,True,,,,,, ,,,,,,,,,0.0-4.1-1.1-1.1,,,, ,718,dark,blicket_images/red_pyramid_on.jpg,,67041,,comprehension_quiz,12,image-keyboard-response,,
692,color_on,True,,,,,,f,,,,,,,,,0.0-4.1-1.1-2.1,,,,f,1047,dark,blicket_images/purple_prism.jpg,,68089,,comprehension_quiz,13,image-keyboard-response,,
692,color_on,True,,,,,, ,,,,,,,,,0.0-4.1-1.1-3.1,,,, ,459,dark,blicket_images/purple_prism_off.jpg,,68550,,comprehension_quiz,14,image-keyboard-response,,
692,color_on,,,,,,,,,,,,,,,,0.0-5.0,,,,,23427,dark,,,91977,,,15,instructions,"[{'page_index': 0, 'viewing_time': 2659}, {'page_index': 1, 'viewing_time': 1563}, {'page_index': 2, 'viewing_time': 958}, {'page_index': 3, 'viewing_time': 1310}, {'page_index': 4, 'viewing_time': 521}, {'page_index': 5, 'viewing_time': 4647}, {'page_index': 6, 'viewing_time': 6870}, {'page_index': 7, 'viewing_time': 4199}, {'page_index': 8, 'viewing_time': 700}]",
692,color_on,False,0,,,,f,off,,,,,,,blicket_images/ls.jpg,,0.0-6.0,,,,j,1889,dark,blicket_images/ls.jpg,,93867,,blicket,16,image-keyboard-response,,
692,color_on,,,,,,,,,,,,,,blicket_images/ls.jpg,,0.0-7.0,,,, ,1056,dark,blicket_images/ls_off.jpg,,94925,,feedback,17,image-keyboard-response,,
692,color_on,True,1,,,,j,on,,,,,,,blicket_images/dc.jpg,,0.0-8.0,,,,j,1417,dark,blicket_images/dc.jpg,,96343,,blicket,18,image-keyboard-response,,
692,color_on,,,,,,,,,,,,,,blicket_images/dc.jpg,,0.0-9.0,,,, ,676,dark,blicket_images/dc_on.jpg,,97020,,feedback,19,image-keyboard-response,,
692,color_on,True,1,,,,j,on,,,,,,,blicket_images/ds.jpg,,0.0-10.0,,,,j,520,dark,blicket_images/ds.jpg,,97541,,blicket,20,image-keyboard-response,,
692,color_on,,,,,,,,,,,,,,blicket_images/ds.jpg,,0.0-11.0,,,, ,400,dark,blicket_images/ds_on.jpg,,97942,,feedback,21,image-keyboard-response,,
692,color_on,True,1,,,,f,off,,,,,,,blicket_images/lc.jpg,,0.0-12.0,,,,f,701,dark,blicket_images/lc.jpg,,98644,,blicket,22,image-keyboard-response,,
692,color_on,,,,,,,,,,,,,,blicket_images/lc.jpg,,0.0-13.0,,,, ,791,dark,blicket_images/lc_off.jpg,,99436,,feedback,23,image-keyboard-response,,
692,color_on,True,1,,,,j,on,,,,,,,blicket_images/ds.jpg,,0.0-14.0,,,,j,551,dark,blicket_images/ds.jpg,,99988,,blicket,24,image-keyboard-response,,
692,color_on,,,,,,,,,,,,,,blicket_images/ds.jpg,,0.0-15.0,,,, ,320,dark,blicket_images/ds_on.jpg,,100309,,feedback,25,image-keyboard-response,,
692,color_on,True,1,,,,f,off,,,,,,,blicket_images/ls.jpg,,0.0-16.0,,,,f,411,dark,blicket_images/ls.jpg,,100730,,blicket,26,image-keyboard-response,,
692,color_on,,,,,,,,,,,,,,blicket_images/ls.jpg,,0.0-17.0,,,, ,864,dark,blicket_images/ls_off.jpg,,101595,,feedback,27,image-keyboard-response,,
692,color_on,True,1,,,,f,off,,,,,,,blicket_images/lc.jpg,,0.0-18.0,,,,f,698,dark,blicket_images/lc.jpg,,102294,,blicket,28,image-keyboard-response,,
692,color_on,,,,,,,,,,,,,,blicket_images/lc.jpg,,0.0-19.0,,,, ,626,dark,blicket_images/lc_off.jpg,,102921,,feedback,29,image-keyboard-response,,
692,color_on,True,1,,,,j,on,,,,,,,blicket_images/dc.jpg,,0.0-20.0,,,,j,640,dark,blicket_images/dc.jpg,,103561,,blicket,30,image-keyboard-response,,
692,color_on,,,,,,,,,,,,,,blicket_images/dc.jpg,,0.0-21.0,,,, ,390,dark,blicket_images/dc_on.jpg,,103953,,feedback,31,image-keyboard-response,,
692,color_on,True,1,,,,j,on,,,,,,,blicket_images/ds.jpg,,0.0-22.0,,,,j,531,dark,blicket_images/ds.jpg,,104484,,blicket,32,image-keyboard-response,,
692,color_on,,,,,,,,,,,,,,blicket_images/ds.jpg,,0.0-23.0,,,, ,385,dark,blicket_images/ds_on.jpg,,104871,,feedback,33,image-keyboard-response,,
692,color_on,True,1,,,,j,on,,,,,,,blicket_images/dc.jpg,,0.0-24.0,,,,j,826,dark,blicket_images/dc.jpg,,105697,,blicket,34,image-keyboard-response,,
692,color_on,,,,,,,,,,,,,,blicket_images/dc.jpg,,0.0-25.0,,,, ,520,dark,blicket_images/dc_on.jpg,,106219,,feedback,35,image-keyboard-response,,
692,color_on,True,1,,,,j,on,,,,,,,blicket_images/ds.jpg,,0.0-26.0,,,,j,666,dark,blicket_images/ds.jpg,,106885,,blicket,36,image-keyboard-response,,
692,color_on,,,,,,,,,,,,,,blicket_images/ds.jpg,,0.0-27.0,,,, ,465,dark,blicket_images/ds_on.jpg,,107352,,feedback,37,image-keyboard-response,,
692,color_on,True,1,,,,f,off,,,,,,,blicket_images/ls.jpg,,0.0-28.0,,,,f,571,dark,blicket_images/ls.jpg,,107924,,blicket,38,image-keyboard-response,,
692,color_on,,,,,,,,,,,,,,blicket_images/ls.jpg,,0.0-29.0,,,, ,540,dark,blicket_images/ls_off.jpg,,108464,,feedback,39,image-keyboard-response,,
692,color_on,True,1,,,,j,on,,,,,,,blicket_images/dc.jpg,,0.0-30.0,,,,j,520,dark,blicket_images/dc.jpg,,108985,,blicket,40,image-keyboard-response,,
692,color_on,,,,,,,,,,,,,,blicket_images/dc.jpg,,0.0-31.0,,,, ,416,dark,blicket_images/dc_on.jpg,,109402,,feedback,41,image-keyboard-response,,
692,color_on,True,1,,,,f,off,,,,,,,blicket_images/lc.jpg,,0.0-32.0,,,,f,541,dark,blicket_images/lc.jpg,,109944,,blicket,42,image-keyboard-response,,
692,color_on,,,,,,,,,,,,,,blicket_images/lc.jpg,,0.0-33.0,,,, ,320,dark,blicket_images/lc_off.jpg,,110264,,feedback,43,image-keyboard-response,,
692,color_on,True,1,,,,f,off,,,,,,,blicket_images/ls.jpg,,0.0-34.0,,,,f,515,dark,blicket_images/ls.jpg,,110781,,blicket,44,image-keyboard-response,,
692,color_on,,,,,,,,,,,,,,blicket_images/ls.jpg,,0.0-35.0,,,, ,365,dark,blicket_images/ls_off.jpg,,111146,,feedback,45,image-keyboard-response,,
692,color_on,True,1,,,,j,on,,,,,,,blicket_images/ds.jpg,,0.0-36.0,,,,j,503,dark,blicket_images/ds.jpg,,111660,,blicket,46,image-keyboard-response,,
692,color_on,False,0,,,blicket_images/ds.jpg,,ds,,,,,,,,blicket_images/dc.jpg,0.0-37.0,,,,dc,2555,dark,"Which of these options shows the image from the last trial, that you just saw?",,114217,,pop_quiz,47,html-button-response,,
692,color_on,True,1,,,,,"['dc', 'ds']",,,,,,,,,0.0-38.0,,[0],,"['dc', 'ds']",3781,dark,,,118002,,rule_question,48,survey-multi-select,,
692,color_on,,,,,,,,,,,,,,,,0.0-39.0,,,,0,2055,dark,"<p>Thank you for participating!</p>You answered 15 out of 16 trials correctly, and will recieve a $0.38 bonus.<p>Now you will complete a short survey before finishing the experiment.</p>",,120062,,,49,html-button-response,,
692,color_on,,,25,0.375,,,,Non-Hispanic,,,,"Check what was the characteristic that defined a blinket, color or shape.",Male,,,0.0-40.0,0.9375,,Asian,"{'age': '25', 'race': 'Asian', 'gender': 'Male', 'feedback': 'Check what was the characteristic that defined a blinket, color or shape.', 'ethnicity': 'Non-Hispanic', 'other_race': '', 'other_gender': ''}",31446,dark,,,151510,,exit_survey,50,survey-html-form,,
709,color_on,,,,,,,,,[],[],[],,,,,0.0-0.0,,,,,,dark,,True,216,False,,0,preload,,
709,color_on,,,,,,,,,[],[],[],,,,,0.0-1.0,,,,,,dark,,True,353,False,,1,preload,,
709,color_on,,,,,,,,,,,,,,,,0.0-2.0,,,,,,dark,,True,11511,,,2,fullscreen,,
